<Bundle xmlns="http://hl7.org/fhir">
   <entry>
      <resource>
         <Composition xmlns="http://hl7.org/fhir">
            <id value="1"/>
            <identifier>
               <system value="urn:oid:2.16.840.1.113883.19.5.99999.1"/>
               <value value="TT988"/>
            </identifier>
            <date value="2013-08-15T10:30:00-08:00"/>
            <type>
               <coding>
                  <system value="http://loinc.org"/>
                  <code value="34133-9"/>
                  <display value="Summarization of Episode Note"/>
               </coding>
            </type>
            <title value="Patient Chart Summary"/>
            <status value="preliminary"/>
            <confidentiality value="N"/>
            <subject>
               <reference value="Patient/2"/>
            </subject>
            <author>
               <reference value="Practitioner/4"/>
            </author>
            <attester>
               <mode value="legal"/>
               <time value="2013-08-15T22:36:15-08:00"/>
               <party>
                  <reference value="Practitioner/5"/>
               </party>
            </attester>
            <attester>
               <mode value="professional"/>
               <time value="2013-08-15T22:15:45-08:00"/>
               <party>
                  <reference value="Practitioner/6"/>
               </party>
            </attester>
            <custodian>
               <reference value="Organization/7"/>
            </custodian>
            <section>
               <title value="SOCIAL HISTORY"/>
               <code>
                  <coding>
                     <system value="http://loinc.org"/>
                     <code value="29762-2"/>
                     <display value="Social History"/>
                  </coding>
               </code>
               <text>
                  <status value="additional"/>
                  <div xmlns="http://www.w3.org/1999/xhtml">
                     <table border="1" width="100%">
                        <thead>
                           <tr>
                              <th>Social History Observation</th>
                              <th>Description</th>
                              <th>Dates Observed</th>
                           </tr>
                        </thead>
                        <tbody>
                           <tr>
                              <td>Current Smoking Status</td>
                              <td>Former smoker</td>
                              <td>September 10, 2012</td>
                           </tr>
                           <tr>
                              <td>Tobacco Use</td>
                              <td>Moderate cigarette smoker, 10-19/day</td>
                              <td>February, 2009 - February, 2011</td>
                           </tr>
                           <tr>
                              <td>Alcoholic drinks per day</td>
                              <td>12</td>
                              <td>Since February, 2012</td>
                           </tr>
                        </tbody>
                     </table>
                  </div>
               </text>
               <entry>
                  <reference value="Observation/8"/>
               </entry>
               <entry>
                  <reference value="Observation/10"/>
               </entry>
               <entry>
                  <reference value="Observation/12"/>
               </entry>
            </section>
            <section>
               <title value="INSURANCE PROVIDERS"/>
               <code>
                  <coding>
                     <system value="http://loinc.org"/>
                     <code value="48768-6"/>
                     <display value="Payer"/>
                  </coding>
               </code>
               <text>
                  <status value="additional"/>
                  <div xmlns="http://www.w3.org/1999/xhtml">
                     <table border="1" width="100%">
                        <thead>
                           <tr>
                              <th>Payer name</th>
                              <th>Policy type / Coverage type</th>
                              <th>Policy ID</th>
                              <th>Covered party ID</th>
                              <th>Policy Holder</th>
                           </tr>
                        </thead>
                        <tbody>
                           <tr>
                              <td>Good Health Insurance</td>
                              <td>Extended healthcare / Family</td>
                              <td>Contract Number</td>
                              <td>1138345</td>
                              <td>Patient's Mother</td>
                           </tr>
                        </tbody>
                     </table>
                  </div>
               </text>
            </section>
            <section>
               <title value="PROBLEMS"/>
               <code>
                  <coding>
                     <system value="http://loinc.org"/>
                     <code value="11450-4"/>
                     <display value="PROBLEM LIST"/>
                  </coding>
               </code>
               <text>
                  <status value="additional"/>
                  <div xmlns="http://www.w3.org/1999/xhtml">
                     <p>Active Concerns</p>
                     <ul>
                        <li>Problem #1
                           <ul>
                              <li>Pneumonia (onset July 3, 2013; resolution Aug 14, 2013) [authored Aug 14, 2013]</li>
                           </ul>
                        </li>
                        <li>Problem #2
                           <ul>
                              <li>Chest pain (onset Apr 14, 2007) [authored Apr 14, 2007]</li>
                              <li>Angina (onset Apr 17, 2007) [authored Apr 17, 2007]</li>
                           </ul>
                        </li>
                     </ul>
                     <p>Resolved Concerns</p>
                     <ul>
                        <li>Problem #3
                           <ul>
                              <li>Pneumonia - Left lower lobe (onset Mar 10, 1998; resolution Mar 16, 1998) [authored Mar 16,                    1998]</li>
                           </ul>
                        </li>
                     </ul>
                  </div>
               </text>
               <entry>
                  <reference value="Condition/14"/>
               </entry>
               <entry>
                  <reference value="Condition/16"/>
               </entry>
               <entry>
                  <reference value="Condition/18"/>
               </entry>
               <entry>
                  <reference value="Condition/20"/>
               </entry>
            </section>
            <section>
               <title value="ENCOUNTERS"/>
               <code>
                  <coding>
                     <system value="http://loinc.org"/>
                     <code value="46240-8"/>
                     <display value="History of encounters"/>
                  </coding>
               </code>
               <text>
                  <status value="additional"/>
                  <div xmlns="http://www.w3.org/1999/xhtml">
                     <table border="1" width="100%">
                        <thead>
                           <tr>
                              <th>Encounter</th>
                              <th>Performer</th>
                              <th>Location</th>
                              <th>Date</th>
                           </tr>
                        </thead>
                        <tbody>
                           <tr>
                              <td> Checkup Examination </td>
                              <td>Performer Name</td>
                              <td>Community Urgent Care Center</td>
                              <td>September 27, 2012 at 1:00pm</td>
                           </tr>
                        </tbody>
                     </table>
                  </div>
               </text>
               <entry>
                  <reference value="Encounter/22"/>
               </entry>
            </section>
            <section>
               <title value="ALLERGIES AND ADVERSE REACTIONS"/>
               <code>
                  <coding>
                     <system value="http://loinc.org"/>
                     <code value="48765-2"/>
                  </coding>
               </code>
               <text>
                  <status value="additional"/>
                  <div xmlns="http://www.w3.org/1999/xhtml">
                     <table border="1" width="100%">
                        <thead>
                           <tr>
                              <th>Substance</th>
                              <th>Reaction</th>
                           </tr>
                        </thead>
                        <tbody>
                           <tr>
                              <td>Penicillin</td>
                              <td>Nausea</td>
                           </tr>
                           <tr>
                              <td>Codeine</td>
                              <td>Wheezing</td>
                           </tr>
                        </tbody>
                     </table>
                  </div>
               </text>
               <entry>
                  <reference value="AllergyIntolerance/26"/>
               </entry>
               <entry>
                  <reference value="AllergyIntolerance/28"/>
               </entry>
            </section>
            <section>
               <title value="MEDICAL EQUIPMENT"/>
               <code>
                  <coding>
                     <system value="http://loinc.org"/>
                     <code value="46264-8"/>
                  </coding>
               </code>
               <text>
                  <status value="additional"/>
                  <div xmlns="http://www.w3.org/1999/xhtml">
                     <span>Medical Equipment</span>
                     <ul>
                        <li>Implanted Devices: Cardiac PaceMaker July 3, 2013</li>
                        <li>Implanted Devices: Upper GI Prosthesis, January 3, 2013</li>
                        <li>Cane, February 2, 2003</li>
                     </ul>
                     <span>Biliary Stent, May 5, 2013</span>
                  </div>
               </text>
               <entry>
                  <reference value="Device/30"/>
               </entry>
               <entry>
                  <reference value="Device/31"/>
               </entry>
               <entry>
                  <reference value="Device/32"/>
               </entry>
               <entry>
                  <reference value="Procedure/33"/>
               </entry>
            </section>
            <section>
               <title value="VITAL SIGNS"/>
               <code>
                  <coding>
                     <system value="http://loinc.org"/>
                     <code value="8716-3"/>
                     <display value="VITAL SIGNS"/>
                  </coding>
               </code>
               <text>
                  <status value="additional"/>
                  <div xmlns="http://www.w3.org/1999/xhtml">
                     <table border="1" width="100%">
                        <thead>
                           <tr>
                              <th align="right">Date / Time: </th>
                              <th>Sept 10, 2012</th>
                              <th>Sept 1, 2011</th>
                           </tr>
                        </thead>
                        <tbody>
                           <tr>
                              <th align="left">Height</th>
                              <td>177 cm</td>
                              <td>177 cm</td>
                           </tr>
                           <tr>
                              <th align="left">Weight</th>
                              <td>86 kg</td>
                              <td>88 kg</td>
                           </tr>
                           <tr>
                              <th align="left">Blood Pressure</th>
                              <td>132/88</td>
                              <td>128/80</td>
                           </tr>
                        </tbody>
                     </table>
                  </div>
               </text>
               <entry>
                  <reference value="Observation/36"/>
               </entry>
               <entry>
                  <reference value="Observation/38"/>
               </entry>
               <entry>
                  <reference value="Observation/40"/>
               </entry>
               <entry>
                  <reference value="Observation/42"/>
               </entry>
               <entry>
                  <reference value="Observation/44"/>
               </entry>
               <entry>
                  <reference value="Observation/46"/>
               </entry>
               <entry>
                  <reference value="Observation/48"/>
               </entry>
               <entry>
                  <reference value="Observation/50"/>
               </entry>
            </section>
            <section>
               <title value="RESULTS"/>
               <code>
                  <coding>
                     <system value="http://loinc.org"/>
                     <code value="30954-2"/>
                     <display value="RESULTS"/>
                  </coding>
               </code>
               <text>
                  <status value="additional"/>
                  <div xmlns="http://www.w3.org/1999/xhtml">
                     <table>
                        <thead>
                           <tr>
                              <th>Result Type</th>
                              <th>Result Value</th>
                              <th>Relevant Reference Range</th>
                              <th>Interpretation</th>
                              <th>Date</th>
                           </tr>
                        </thead>
                        <tbody>
                           <tr>
                              <td>Hemoglobin</td>
                              <td>13.2 g/dL</td>
                              <td>Normal range for women is 12.0 to 15.5 grams per deciliter</td>
                              <td>Normal</td>
                              <td>03/19/2008</td>
                           </tr>
                           <tr>
                              <td>Leukocytes</td>
                              <td>6.7 10*9/L</td>
                              <td>Normal white blood cell count range 3.5-10.5 billion cells/L</td>
                              <td>Normal</td>
                              <td>03/19/2008</td>
                           </tr>
                           <tr>
                              <td>Platelets</td>
                              <td>123 10*9/L</td>
                              <td>Normal white blood cell count range 3.5-10.5 billion cells/L</td>
                              <td>Low</td>
                              <td>03/19/2008</td>
                           </tr>
                           <tr>
                              <td>Hematocrit</td>
                              <td>35.3 %</td>
                              <td>Normal hematocrit range for female: 34.9-44.5 percent</td>
                              <td>Normal</td>
                              <td>03/19/2008</td>
                           </tr>
                           <tr>
                              <td>Erythrocytes</td>
                              <td>4.21 10*12/L</td>
                              <td>Normal red blood cell count range 3.90-5.03 trillion cells/L</td>
                              <td>Normal</td>
                              <td>03/19/2008</td>
                           </tr>
                           <tr>
                              <td>Urea nitrogen, Serum</td>
                              <td>Pending</td>
                              <td>Pending</td>
                              <td>Pending</td>
                              <td>March 20, 2008</td>
                           </tr>
                        </tbody>
                     </table>
                  </div>
               </text>
               <entry>
                  <reference value="DiagnosticReport/52"/>
               </entry>
               <entry>
                  <reference value="DiagnosticReport/55"/>
               </entry>
            </section>
            <section>
               <title value="IMMUNIZATIONS"/>
               <code>
                  <coding>
                     <system value="http://loinc.org"/>
                     <code value="11369-6"/>
                     <display value="History of immunizations"/>
                  </coding>
               </code>
               <text>
                  <status value="additional"/>
                  <div xmlns="http://www.w3.org/1999/xhtml">
                     <span/>
                     <table border="1" width="100%">
                        <thead>
                           <tr>
                              <th>Vaccine</th>
                              <th>Date</th>
                              <th>Status</th>
                              <th>Series number</th>
                           </tr>
                        </thead>
                        <tbody>
                           <tr>
                              <td>
                                 <span/> Influenza, seasonal, IM 
                              </td>
                              <td>Nov 1999</td>
                              <td>Completed</td>
                              <td>N/A</td>
                           </tr>
                           <tr>
                              <td>
                                 <span/> Influenza, seasonal, IM 
                              </td>
                              <td>Dec 1998</td>
                              <td>Completed</td>
                              <td>N/A</td>
                           </tr>
                           <tr>
                              <td>
                                 <span/> Pneumococcal polysaccharide vaccine, IM 
                              </td>
                              <td>Dec 1998</td>
                              <td>Completed</td>
                              <td>N/A</td>
                           </tr>
                           <tr>
                              <td>
                                 <span/> Tetanus and diphtheria toxoids, IM 
                              </td>
                              <td>1997</td>
                              <td>Refused</td>
                              <td>N/A</td>
                           </tr>
                           <tr>
                              <td>Hepatitis B</td>
                              <td>Aug 1, 2013</td>
                              <td>Completed</td>
                              <td>3rd</td>
                           </tr>
                        </tbody>
                     </table>
                  </div>
               </text>
               <entry>
                  <reference value="Immunization/67"/>
               </entry>
               <entry>
                  <reference value="Immunization/71"/>
               </entry>
               <entry>
                  <reference value="Immunization/74"/>
               </entry>
               <entry>
                  <reference value="Immunization/78"/>
               </entry>
               <entry>
                  <reference value="Immunization/83"/>
               </entry>
            </section>
            <section>
               <title value="PROCEDURES"/>
               <code>
                  <coding>
                     <system value="http://loinc.org"/>
                     <code value="47519-4"/>
                     <display value="HISTORY OF PROCEDURES"/>
                  </coding>
               </code>
               <text>
                  <status value="additional"/>
                  <div xmlns="http://www.w3.org/1999/xhtml">
                     <table border="1" width="100%">
                        <thead>
                           <tr>
                              <th>Procedure</th>
                              <th>Date</th>
                           </tr>
                        </thead>
                        <tbody>
                           <tr>
                              <td>Colonic polypectomy</td>
                              <td>1998</td>
                           </tr>
                        </tbody>
                     </table>
                  </div>
               </text>
               <entry>
                  <reference value="Procedure/87"/>
               </entry>
            </section>
            <section>
               <title value="ADVANCE DIRECTIVES"/>
               <code>
                  <coding>
                     <system value="http://loinc.org"/>
                     <code value="42348-3"/>
                  </coding>
               </code>
               <text>
                  <status value="additional"/>
                  <div xmlns="http://www.w3.org/1999/xhtml">
                     <table border="1" width="100%">
                        <thead>
                           <tr>
                              <th>Directive</th>
                              <th>Description</th>
                              <th>Verification</th>
                              <th>Supporting Document(s)</th>
                           </tr>
                        </thead>
                        <tbody>
                           <tr>
                              <td>Resuscitation status</td>
                              <td>Do not resuscitate</td>
                              <td>Dr. Patricia Primary, Feb 19, 2011</td>
                              <td>
                                 <a href="AdvanceDirective.b50b7910.pdf">Advance directive</a>
                              </td>
                           </tr>
                        </tbody>
                     </table>
                  </div>
               </text>
            </section>
            <section>
               <title value="MEDICATIONS"/>
               <code>
                  <coding>
                     <system value="http://loinc.org"/>
                     <code value="10160-0"/>
                     <display value="HISTORY OF MEDICATION USE"/>
                  </coding>
               </code>
               <text>
                  <status value="additional"/>
                  <div xmlns="http://www.w3.org/1999/xhtml">
                     <table border="1" width="100%">
                        <thead>
                           <tr>
                              <th>Medication</th>
                              <th>Directions</th>
                              <th>Start Date</th>
                              <th>Status</th>
                              <th>Indications</th>
                              <th>Fill Instructions</th>
                           </tr>
                        </thead>
                        <tbody>
                           <tr>
                              <td>Proventil 0.09 MG/ACTUAT inhalant solution</td>
                              <td>2 puffs q6 hours PRN wheezing</td>
                              <td>Jan 3, 2011</td>
                              <td>Active</td>
                              <td>Asthma</td>
                              <td>Generic Substitition Allowed</td>
                           </tr>
                           <tr>
                              <td>Atenolol 25 MG Oral Tablet</td>
                              <td>1 every 12 hours Orally</td>
                              <td>Mar 18, 2012</td>
                              <td>Active</td>
                              <td>Hypertension</td>
                              <td>-none-</td>
                           </tr>
                        </tbody>
                     </table>
                  </div>
               </text>
               <entry>
                  <reference value="MedicationStatement/91"/>
               </entry>
               <entry>
                  <reference value="MedicationStatement/95"/>
               </entry>
            </section>
            <section>
               <title value="TREATMENT PLAN"/>
               <code>
                  <coding>
                     <system value="http://loinc.org"/>
                     <code value="18776-5"/>
                     <display value="Treatment plan"/>
                  </coding>
               </code>
               <text>
                  <status value="additional"/>
                  <div xmlns="http://www.w3.org/1999/xhtml">
                     <span> Hand-off Communication:</span>
                     <span>Nurse Florence, RN to MD to Nancy Nightingale, RN</span>
                     <br/>
                     <br/>
                     <table border="1" width="100%">
                        <thead>
                           <tr>
                              <th>Planned Care</th>
                              <th>Start Date</th>
                              <th>Patient Provider Rating</th>
                              <th>Provider Provider Rating</th>
                              <th>Provider</th>
                              <th>Patient Support/Caregiver</th>
                           </tr>
                        </thead>
                        <tbody>
                           <tr>
                              <td>Procedure: Colonoscopy</td>
                              <td>June 15, 2013</td>
                              <td>1st, Medium</td>
                              <td>3rd, Medium</td>
                              <td/>
                              <td>Caregiver: Mother</td>
                           </tr>
                           <tr>
                              <td>Medication: Heparin 0.25 ml pre-filled syringe</td>
                              <td>July 12, 2013</td>
                              <td/>
                              <td>First, Medium</td>
                              <td>Third, Medium</td>
                              <td>Caregiver: Mother</td>
                           </tr>
                        </tbody>
                     </table>
                  </div>
               </text>
            </section>
            <section>
               <title value="FAMILY HISTORY"/>
               <code>
                  <coding>
                     <system value="http://loinc.org"/>
                     <code value="10157-6"/>
                  </coding>
               </code>
               <text>
                  <status value="additional"/>
                  <div xmlns="http://www.w3.org/1999/xhtml">
                     <p>Father (deceased)</p>
                     <table border="1" width="100%">
                        <thead>
                           <tr>
                              <th>Diagnosis</th>
                              <th>Age At Onset</th>
                           </tr>
                        </thead>
                        <tbody>
                           <tr>
                              <td>Myocardial Infarction (cause of death)</td>
                              <td>57</td>
                           </tr>
                           <tr>
                              <td>Diabetes</td>
                              <td>40</td>
                           </tr>
                        </tbody>
                     </table>
                  </div>
               </text>
               <entry>
                  <reference value="FamilyMemberHistory/100"/>
               </entry>
            </section>
            <section>
               <title value="FUNCTIONAL STATUS"/>
               <code>
                  <coding>
                     <system value="http://loinc.org"/>
                     <code value="47420-5"/>
                     <display value="Functional Status"/>
                  </coding>
               </code>
               <text>
                  <status value="additional"/>
                  <div xmlns="http://www.w3.org/1999/xhtml">
                     <table border="1" width="100%">
                        <thead>
                           <tr>
                              <th>Functional Category</th>
                              <th>Effective Dates</th>
                              <th>Results of Evaluation</th>
                           </tr>
                        </thead>
                        <tbody>
                           <tr>
                              <td>Functional Assessment</td>
                              <td>March 11, 2013</td>
                              <td>Independent Walking</td>
                           </tr>
                           <tr>
                              <td>ADL/IADL: Bathing</td>
                              <td>March 11,2013</td>
                              <td>Independent</td>
                           </tr>
                        </tbody>
                     </table>
                  </div>
               </text>
               <entry>
                  <reference value="Observation/101"/>
               </entry>
               <entry>
                  <reference value="Observation/104"/>
               </entry>
            </section>
         </Composition>
      </resource>
   </entry>
   <entry>
      <resource>
         <Patient xmlns="http://hl7.org/fhir">
            <id value="2"/>
            <meta>
               <profile value="http://hl7.org/fhir/StructureDefinition/daf-patient"/>
            </meta>
            <text>
               <status value="generated"/>
               <div xmlns="http://www.w3.org/1999/xhtml">
                  <div class="hapiHeaderText">Eve 
                     <b>BETTERHALF </b>
                  </div>
                  <table class="hapiPropertyTable">
                     <tbody>
                        <tr>
                           <td>Identifier</td>
                           <td>444222222</td>
                        </tr>
                        <tr>
                           <td>Address</td>
                           <td>
                              <span>2222 Home Street </span>
                              <br/>
                              <span>Beaverton </span>
                              <span>OR </span>
                              <span>US </span>
                           </td>
                        </tr>
                        <tr>
                           <td>Date of birth</td>
                           <td>
                              <span>01 May 1975</span>
                           </td>
                        </tr>
                     </tbody>
                  </table>
               </div>
            </text>
            <extension url="http://hl7.org/fhir/StructureDefinition/us-core-race">
               <valueCodeableConcept>
                  <coding>
                     <system value="urn:oid:2.16.840.1.113883.6.238"/>
                     <code value="2106-3"/>
                     <display value="White"/>
                  </coding>
               </valueCodeableConcept>
            </extension>
            <extension url="http://hl7.org/fhir/StructureDefinition/us-core-ethnicity">
               <valueCodeableConcept>
                  <coding>
                     <system value="urn:oid:2.16.840.1.113883.6.238"/>
                     <code value="2186-5"/>
                     <display value="Not Hispanic or Latino"/>
                  </coding>
               </valueCodeableConcept>
            </extension>
            <extension url="http://hl7.org/fhir/StructureDefinition/us-core-religion">
               <valueCodeableConcept>
                  <coding>
                     <system value="urn:oid:2.16.840.1.113883.5.1076"/>
                     <code value="1013"/>
                     <display value="Christian (non-Catholic, non-specific)"/>
                  </coding>
               </valueCodeableConcept>
            </extension>
            <extension url="http://hl7.org/fhir/StructureDefinition/birthPlace">
               <valueAddress>
                  <line value="4444 Home Street"/>
                  <city value="Beaverton"/>
                  <state value="OR"/>
                  <postalCode value="97867"/>
                  <country value="US"/>
               </valueAddress>
            </extension>
            <identifier>
               <system value="urn:oid:2.16.840.1.113883.4.1"/>
               <value value="444222222"/>
            </identifier>
            <name>
               <use value="usual"/>
               <family value="Betterhalf"/>
               <given value="Eve"/>
            </name>
            <telecom>
               <system value="phone"/>
               <value value="+1(555)555-2003"/>
               <use value="home"/>
            </telecom>
            <gender value="female"/>
            <birthDate value="1975-05-01"/>
            <address>
               <use value="home"/>
               <line value="2222 Home Street"/>
               <city value="Beaverton"/>
               <state value="OR"/>
               <postalCode value="97867"/>
               <country value="US"/>
            </address>
            <maritalStatus>
               <coding>
                  <system value="http://hl7.org/fhir/v3/MaritalStatus"/>
                  <code value="M"/>
               </coding>
            </maritalStatus>
            <contact>
               <relationship>
                  <coding>
                     <system value="http://hl7.org/fhir/patient-contact-relationship"/>
                     <code value="agent"/>
                     <display value="Agent"/>
                  </coding>
               </relationship>
               <name>
                  <family value="Betterhalf"/>
                  <given value="Boris"/>
                  <given value="Bo"/>
               </name>
               <telecom>
                  <system value="phone"/>
                  <value value="+1(555)555-2008"/>
                  <use value="mobile"/>
               </telecom>
               <address>
                  <use value="home"/>
                  <line value="2222 Home Street"/>
                  <city value="Beaverton"/>
                  <state value="OR"/>
                  <postalCode value="97867"/>
                  <country value="US"/>
               </address>
            </contact>
            <communication>
               <language>
                  <coding>
                     <system value="urn:ietf:bcp:47"/>
                     <code value="en"/>
                  </coding>
               </language>
               <preferred value="true"/>
            </communication>
            <managingOrganization>
               <reference value="Organization/3"/>
            </managingOrganization>
         </Patient>
      </resource>
   </entry>
   <entry>
      <resource>
         <Organization xmlns="http://hl7.org/fhir">
            <id value="3"/>
            <meta>
               <profile value="http://hl7.org/fhir/StructureDefinition/daf-organization"/>
            </meta>
            <text>
               <status value="generated"/>
               <div xmlns="http://www.w3.org/1999/xhtml">
                  <table class="hapiPropertyTable">
                     <tbody>
                        <tr>
                           <td>Identifier</td>
                           <td>219BX</td>
                        </tr>
                        <tr>
                           <td>Name</td>
                           <td>The DoctorsTogether Physician Group</td>
                        </tr>
                     </tbody>
                  </table>
               </div>
            </text>
            <identifier>
               <system value="urn:oid:2.16.840.1.113883.4.6"/>
               <value value="219BX"/>
            </identifier>
            <name value="The DoctorsTogether Physician Group"/>
            <telecom>
               <system value="phone"/>
               <value value=" +1(555)555-5000"/>
               <use value="work"/>
            </telecom>
            <address>
               <line value="1007 Health Drive"/>
               <city value="Portland"/>
               <state value="OR"/>
               <postalCode value="99123"/>
               <country value="US"/>
            </address>
         </Organization>
      </resource>
   </entry>
   <entry>
      <resource>
         <Practitioner xmlns="http://hl7.org/fhir">
            <id value="4"/>
            <meta>
               <profile value="http://hl7.org/fhir/StructureDefinition/daf-pract"/>
            </meta>
            <text>
               <status value="generated"/>
               <div xmlns="http://www.w3.org/1999/xhtml">
                  <table class="hapiPropertyTable">
                     <tbody>
                        <tr>
                           <td>Identifier</td>
                           <td>5555555555</td>
                        </tr>
                        <tr>
                           <td>Name</td>
                           <td>Patricia Patty 
                              <b>PRIMARY </b>M.D.
                           </td>
                        </tr>
                     </tbody>
                  </table>
               </div>
            </text>
            <identifier>
               <system value="urn:oid:2.16.840.1.113883.4.6"/>
               <value value="5555555555"/>
            </identifier>
            <name>
               <family value="Primary"/>
               <given value="Patricia"/>
               <given value="Patty"/>
               <suffix value="M.D."/>
            </name>
            <telecom>
               <system value="phone"/>
               <value value="+1(555)555-1004"/>
               <use value="work"/>
            </telecom>
            <address>
               <line value="1004 Healthcare Drive "/>
               <city value="Portland"/>
               <state value="OR"/>
               <postalCode value="99123"/>
               <country value="US"/>
            </address>
            <practitionerRole>
               <role>
                  <coding>
                     <system value="urn:oid:2.16.840.1.113883.6.101"/>
                     <code value="207QA0505X"/>
                     <display value="Adult Medicine"/>
                  </coding>
               </role>
            </practitionerRole>
         </Practitioner>
      </resource>
   </entry>
   <entry>
      <resource>
         <Practitioner xmlns="http://hl7.org/fhir">
            <id value="5"/>
            <meta>
               <profile value="http://hl7.org/fhir/StructureDefinition/daf-pract"/>
            </meta>
            <text>
               <status value="generated"/>
               <div xmlns="http://www.w3.org/1999/xhtml">
                  <table class="hapiPropertyTable">
                     <tbody>
                        <tr>
                           <td>Identifier</td>
                           <td>5555555555</td>
                        </tr>
                        <tr>
                           <td>Name</td>
                           <td>Patricia Patty 
                              <b>PRIMARY </b>M.D.
                           </td>
                        </tr>
                     </tbody>
                  </table>
               </div>
            </text>
            <identifier>
               <system value="urn:oid:2.16.840.1.113883.4.6"/>
               <value value="5555555555"/>
            </identifier>
            <name>
               <family value="Primary"/>
               <given value="Patricia"/>
               <given value="Patty"/>
               <suffix value="M.D."/>
            </name>
            <telecom>
               <system value="phone"/>
               <value value="+1(555)555-1004"/>
               <use value="work"/>
            </telecom>
            <address>
               <line value="1004 Healthcare Drive "/>
               <city value="Portland"/>
               <state value="OR"/>
               <postalCode value="99123"/>
               <country value="US"/>
            </address>
            <practitionerRole>
               <role>
                  <coding>
                     <system value="urn:oid:2.16.840.1.113883.6.101"/>
                     <code value="207QA0505X"/>
                     <display value="Adult Medicine"/>
                  </coding>
               </role>
            </practitionerRole>
         </Practitioner>
      </resource>
   </entry>
   <entry>
      <resource>
         <Practitioner xmlns="http://hl7.org/fhir">
            <id value="6"/>
            <meta>
               <profile value="http://hl7.org/fhir/StructureDefinition/daf-pract"/>
            </meta>
            <text>
               <status value="generated"/>
               <div xmlns="http://www.w3.org/1999/xhtml">
                  <table class="hapiPropertyTable">
                     <tbody>
                        <tr>
                           <td>Identifier</td>
                           <td>5555555555</td>
                        </tr>
                        <tr>
                           <td>Name</td>
                           <td>Patricia Patty 
                              <b>PRIMARY </b>M.D.
                           </td>
                        </tr>
                     </tbody>
                  </table>
               </div>
            </text>
            <identifier>
               <system value="urn:oid:2.16.840.1.113883.4.6"/>
               <value value="5555555555"/>
            </identifier>
            <name>
               <family value="Primary"/>
               <given value="Patricia"/>
               <given value="Patty"/>
               <suffix value="M.D."/>
            </name>
            <telecom>
               <system value="phone"/>
               <value value="+1(555)555-1004"/>
               <use value="work"/>
            </telecom>
            <address>
               <line value="1004 Healthcare Drive "/>
               <city value="Portland"/>
               <state value="OR"/>
               <postalCode value="99123"/>
               <country value="US"/>
            </address>
            <practitionerRole>
               <role>
                  <coding>
                     <system value="urn:oid:2.16.840.1.113883.6.101"/>
                     <code value="207QA0505X"/>
                     <display value="Adult Medicine"/>
                  </coding>
               </role>
            </practitionerRole>
         </Practitioner>
      </resource>
   </entry>
   <entry>
      <resource>
         <Organization xmlns="http://hl7.org/fhir">
            <id value="7"/>
            <meta>
               <profile value="http://hl7.org/fhir/StructureDefinition/daf-organization"/>
            </meta>
            <text>
               <status value="generated"/>
               <div xmlns="http://www.w3.org/1999/xhtml">
                  <table class="hapiPropertyTable">
                     <tbody>
                        <tr>
                           <td>Identifier</td>
                           <td>321CX</td>
                        </tr>
                        <tr>
                           <td>Name</td>
                           <td>Good Health HIE</td>
                        </tr>
                     </tbody>
                  </table>
               </div>
            </text>
            <identifier>
               <system value="urn:oid:2.16.840.1.113883.4.6"/>
               <value value="321CX"/>
            </identifier>
            <name value="Good Health HIE"/>
            <telecom>
               <system value="phone"/>
               <value value="+1(555)555-1009"/>
               <use value="work"/>
            </telecom>
            <address>
               <use value="work"/>
               <line value="1009 Healthcare Drive "/>
               <city value="Portland"/>
               <state value="OR"/>
               <postalCode value="99123"/>
               <country value="US"/>
            </address>
         </Organization>
      </resource>
   </entry>
   <entry>
      <resource>
         <Observation xmlns="http://hl7.org/fhir">
            <id value="8"/>
            <text>
               <status value="generated"/>
               <div xmlns="http://www.w3.org/1999/xhtml">
                  <table class="hapiPropertyTable">
                     <tbody>
                        <tr>
                           <td>Code</td>
                           <td>
                              <div>History of tobacco use</div>
                           </td>
                        </tr>
                        <tr>
                           <td>Date/Period</td>
                           <td>Tue Feb 14 00:00:00 CST 2009 - Mon Feb 15 00:00:00 CST 2011</td>
                        </tr>
                        <tr>
                           <td>Result</td>
                           <td>
                              <div>Moderate cigarette smoker, 10-19/day</div>
                           </td>
                        </tr>
                     </tbody>
                  </table>
               </div>
            </text>
            <identifier>
               <value value="45efb604-7049-4a2e-ad33-d38556c9636c"/>
            </identifier>
            <status value="final"/>
            <code>
               <coding>
                  <system value="http://loinc.org"/>
                  <code value="11367-0"/>
                  <display value="History of tobacco use"/>
               </coding>
            </code>
            <subject>
               <reference value="Patient/2"/>
            </subject>
            <effectivePeriod>
               <start value="2009-02-14"/>
               <end value="2011-02-15"/>
            </effectivePeriod>
            <issued value="2012-09-10T11:45:00-08:00"/>
            <performer>
               <reference value="Practitioner/9"/>
            </performer>
            <valueCodeableConcept>
               <coding>
                  <system value="http://snomed.info/sct"/>
                  <code value="160604004"/>
                  <display value="Moderate cigarette smoker, 10-19/day"/>
               </coding>
            </valueCodeableConcept>
         </Observation>
      </resource>
   </entry>
   <entry>
      <resource>
         <Practitioner xmlns="http://hl7.org/fhir">
            <id value="9"/>
            <meta>
               <profile value="http://hl7.org/fhir/StructureDefinition/daf-pract"/>
            </meta>
            <text>
               <status value="generated"/>
               <div xmlns="http://www.w3.org/1999/xhtml">
                  <table class="hapiPropertyTable">
                     <tbody>
                        <tr>
                           <td>Identifier</td>
                           <td>555555555</td>
                        </tr>
                        <tr>
                           <td>Name</td>
                           <td/>
                        </tr>
                     </tbody>
                  </table>
               </div>
            </text>
            <identifier>
               <system value="urn:oid:2.16.840.1.113883.4.6"/>
               <value value="555555555"/>
            </identifier>
            <practitionerRole>
               <role>
                  <coding>
                     <system value="urn:oid:2.16.840.1.113883.6.101"/>
                     <code value="207QA0505X"/>
                     <display value="Adult Medicine"/>
                  </coding>
               </role>
            </practitionerRole>
         </Practitioner>
      </resource>
   </entry>
   <entry>
      <resource>
         <Observation xmlns="http://hl7.org/fhir">
            <id value="10"/>
            <text>
               <status value="generated"/>
               <div xmlns="http://www.w3.org/1999/xhtml">
                  <table class="hapiPropertyTable">
                     <tbody>
                        <tr>
                           <td>Code</td>
                           <td>
                              <div>Alcoholic drinks per day</div>
                           </td>
                        </tr>
                        <tr>
                           <td>Date/Period</td>
                           <td>Sun Feb 15 00:00:00 CST 2012 - ?</td>
                        </tr>
                        <tr>
                           <td>Result</td>
                           <td>
                              <div>13</div>
                           </td>
                        </tr>
                     </tbody>
                  </table>
               </div>
            </text>
            <identifier>
               <value value="37f76c51-6411-4e1d-8a37-957fd49d2cef"/>
            </identifier>
            <status value="final"/>
            <code>
               <coding>
                  <system value="http://loinc.org"/>
                  <code value="74013-4"/>
                  <display value="Alcoholic drinks per day"/>
               </coding>
            </code>
            <subject>
               <reference value="Patient/2"/>
            </subject>
            <effectivePeriod>
               <start value="2012-02-15"/>
            </effectivePeriod>
            <issued value="2012-09-10T11:45:00-08:00"/>
            <performer>
               <reference value="Practitioner/11"/>
            </performer>
            <valueQuantity>
               <value value="12"/>
               <unit value="1"/>
            </valueQuantity>
         </Observation>
      </resource>
   </entry>
   <entry>
      <resource>
         <Practitioner xmlns="http://hl7.org/fhir">
            <id value="11"/>
            <meta>
               <profile value="http://hl7.org/fhir/StructureDefinition/daf-pract"/>
            </meta>
            <text>
               <status value="generated"/>
               <div xmlns="http://www.w3.org/1999/xhtml">
                  <table class="hapiPropertyTable">
                     <tbody>
                        <tr>
                           <td>Identifier</td>
                           <td>555555555</td>
                        </tr>
                        <tr>
                           <td>Name</td>
                           <td/>
                        </tr>
                     </tbody>
                  </table>
               </div>
            </text>
            <identifier>
               <system value="urn:oid:2.16.840.1.113883.4.6"/>
               <value value="555555555"/>
            </identifier>
            <practitionerRole>
               <role>
                  <coding>
                     <system value="urn:oid:2.16.840.1.113883.6.101"/>
                     <code value="207QA0505X"/>
                     <display value="Adult Medicine"/>
                  </coding>
               </role>
            </practitionerRole>
         </Practitioner>
      </resource>
   </entry>
   <entry>
      <resource>
         <Observation xmlns="http://hl7.org/fhir">
            <id value="12"/>
            <text>
               <status value="generated"/>
               <div xmlns="http://www.w3.org/1999/xhtml">
                  <table class="hapiPropertyTable">
                     <tbody>
                        <tr>
                           <td>Code</td>
                           <td>
                              <div>Tobacco smoking status NHIS</div>
                           </td>
                        </tr>
                        <tr>
                           <td>Date/Period</td>
                           <td>Thu Sep 10 00:00:00 CST 2012 - ?</td>
                        </tr>
                        <tr>
                           <td>Result</td>
                           <td>
                              <div>Former smoker</div>
                           </td>
                        </tr>
                     </tbody>
                  </table>
               </div>
            </text>
            <identifier>
               <system value="urn:oid:2.16.840.1.113883.19"/>
               <value value="123456789"/>
            </identifier>
            <status value="final"/>
            <code>
               <coding>
                  <system value="http://loinc.org"/>
                  <code value="72166-2"/>
                  <display value="Tobacco smoking status NHIS"/>
               </coding>
            </code>
            <subject>
               <reference value="Patient/2"/>
            </subject>
            <effectivePeriod>
               <start value="2012-09-10"/>
            </effectivePeriod>
            <issued value="2012-09-10T11:45:00-08:00"/>
            <performer>
               <reference value="Practitioner/13"/>
            </performer>
            <valueCodeableConcept>
               <coding>
                  <system value="http://snomed.info/sct"/>
                  <code value="8517006"/>
                  <display value="Former smoker"/>
               </coding>
            </valueCodeableConcept>
         </Observation>
      </resource>
   </entry>
   <entry>
      <resource>
         <Practitioner xmlns="http://hl7.org/fhir">
            <id value="13"/>
            <meta>
               <profile value="http://hl7.org/fhir/StructureDefinition/daf-pract"/>
            </meta>
            <text>
               <status value="generated"/>
               <div xmlns="http://www.w3.org/1999/xhtml">
                  <table class="hapiPropertyTable">
                     <tbody>
                        <tr>
                           <td>Identifier</td>
                           <td>555555555</td>
                        </tr>
                        <tr>
                           <td>Name</td>
                           <td/>
                        </tr>
                     </tbody>
                  </table>
               </div>
            </text>
            <identifier>
               <system value="urn:oid:2.16.840.1.113883.4.6"/>
               <value value="555555555"/>
            </identifier>
            <practitionerRole>
               <role>
                  <coding>
                     <system value="urn:oid:2.16.840.1.113883.6.101"/>
                     <code value="207QA0505X"/>
                     <display value="Adult Medicine"/>
                  </coding>
               </role>
            </practitionerRole>
         </Practitioner>
      </resource>
   </entry>
   <entry>
      <resource>
         <Condition xmlns="http://hl7.org/fhir">
            <id value="14"/>
            <meta>
               <profile value="http://hl7.org/fhir/StructureDefinition/daf-condition"/>
            </meta>
            <text>
               <status value="generated"/>
               <div xmlns="http://www.w3.org/1999/xhtml">
                  <table class="hapiPropertyTable">
                     <tbody>
                        <tr>
                           <td>Code</td>
                           <td>
                              <div>Pneumonia</div>
                           </td>
                        </tr>
                        <tr>
                           <td>Date Recorded</td>
                           <td>Wed Aug 14 12:30:00 CST 2008</td>
                        </tr>
                        <tr>
                           <td>Category</td>
                           <td/>
                        </tr>
                        <tr>
                           <td>Clinical Status</td>
                           <td>active</td>
                        </tr>
                        <tr>
                           <td>Onset</td>
                           <td>
                              <div>Thu Jul 03 00:00:00 CST 2013</div>
                           </td>
                        </tr>
                     </tbody>
                  </table>
               </div>
            </text>
            <identifier>
               <value value="ab1791b0-5c71-11db-b0de-0800200c9a66"/>
            </identifier>
            <patient>
               <reference value="Patient/2"/>
            </patient>
            <asserter>
               <reference value="Practitioner/15"/>
            </asserter>
            <dateRecorded value="2008-08-14"/>
            <code>
               <coding>
                  <system value="http://snomed.info/sct"/>
                  <code value="233604007"/>
                  <display value="Pneumonia"/>
               </coding>
            </code>
            <category>
               <coding>
                  <system value="http://hl7.org/fhir/condition-category"/>
                  <code value="diagnosis"/>
               </coding>
            </category>
            <clinicalStatus value="active"/>
            <verificationStatus value="confirmed"/>
            <onsetDateTime value="2013-07-03"/>
            <abatementDateTime value="2008-08-14"/>
         </Condition>
      </resource>
   </entry>
   <entry>
      <resource>
         <Practitioner xmlns="http://hl7.org/fhir">
            <id value="15"/>
            <meta>
               <profile value="http://hl7.org/fhir/StructureDefinition/daf-pract"/>
            </meta>
            <text>
               <status value="generated"/>
               <div xmlns="http://www.w3.org/1999/xhtml">
                  <table class="hapiPropertyTable">
                     <tbody>
                        <tr>
                           <td>Identifier</td>
                           <td>555555555</td>
                        </tr>
                        <tr>
                           <td>Name</td>
                           <td/>
                        </tr>
                     </tbody>
                  </table>
               </div>
            </text>
            <identifier>
               <system value="urn:oid:2.16.840.1.113883.4.6"/>
               <value value="555555555"/>
            </identifier>
            <practitionerRole>
               <role>
                  <coding>
                     <system value="urn:oid:2.16.840.1.113883.6.101"/>
                     <code value="207QA0505X"/>
                     <display value="Adult Medicine"/>
                  </coding>
               </role>
            </practitionerRole>
         </Practitioner>
      </resource>
   </entry>
   <entry>
      <resource>
         <Condition xmlns="http://hl7.org/fhir">
            <id value="16"/>
            <meta>
               <profile value="http://hl7.org/fhir/StructureDefinition/daf-condition"/>
            </meta>
            <text>
               <status value="generated"/>
               <div xmlns="http://www.w3.org/1999/xhtml">
                  <table class="hapiPropertyTable">
                     <tbody>
                        <tr>
                           <td>Code</td>
                           <td>
                              <div>Chest pain</div>
                           </td>
                        </tr>
                        <tr>
                           <td>Date Recorded</td>
                           <td>Mon Apr 14 17:15:00 CST 2007</td>
                        </tr>
                        <tr>
                           <td>Category</td>
                           <td/>
                        </tr>
                        <tr>
                           <td>Clinical Status</td>
                           <td>active</td>
                        </tr>
                        <tr>
                           <td>Onset</td>
                           <td>
                              <div>Mon Apr 14 00:00:00 CST 2007</div>
                           </td>
                        </tr>
                     </tbody>
                  </table>
               </div>
            </text>
            <identifier>
               <value value="11d088a8-b957-401c-8ee0-3bd20a772fc0"/>
            </identifier>
            <patient>
               <reference value="Patient/2"/>
            </patient>
            <asserter>
               <reference value="Practitioner/17"/>
            </asserter>
            <dateRecorded value="2007-04-14"/>
            <code>
               <coding>
                  <system value="http://snomed.info/sct"/>
                  <code value="29857009"/>
                  <display value="Chest pain"/>
               </coding>
            </code>
            <category>
               <coding>
                  <system value="http://hl7.org/fhir/condition-category"/>
                  <code value="diagnosis"/>
               </coding>
            </category>
            <clinicalStatus value="active"/>
            <verificationStatus value="confirmed"/>
            <onsetDateTime value="2007-04-14"/>
         </Condition>
      </resource>
   </entry>
   <entry>
      <resource>
         <Practitioner xmlns="http://hl7.org/fhir">
            <id value="17"/>
            <meta>
               <profile value="http://hl7.org/fhir/StructureDefinition/daf-pract"/>
            </meta>
            <text>
               <status value="generated"/>
               <div xmlns="http://www.w3.org/1999/xhtml">
                  <table class="hapiPropertyTable">
                     <tbody>
                        <tr>
                           <td>Identifier</td>
                           <td>555555555</td>
                        </tr>
                        <tr>
                           <td>Name</td>
                           <td/>
                        </tr>
                     </tbody>
                  </table>
               </div>
            </text>
            <identifier>
               <system value="urn:oid:2.16.840.1.113883.4.6"/>
               <value value="555555555"/>
            </identifier>
            <practitionerRole>
               <role>
                  <coding>
                     <system value="urn:oid:2.16.840.1.113883.6.101"/>
                     <code value="207QA0505X"/>
                     <display value="Adult Medicine"/>
                  </coding>
               </role>
            </practitionerRole>
         </Practitioner>
      </resource>
   </entry>
   <entry>
      <resource>
         <Condition xmlns="http://hl7.org/fhir">
            <id value="18"/>
            <meta>
               <profile value="http://hl7.org/fhir/StructureDefinition/daf-condition"/>
            </meta>
            <text>
               <status value="generated"/>
               <div xmlns="http://www.w3.org/1999/xhtml">
                  <table class="hapiPropertyTable">
                     <tbody>
                        <tr>
                           <td>Code</td>
                           <td>
                              <div>Angina</div>
                           </td>
                        </tr>
                        <tr>
                           <td>Date Recorded</td>
                           <td>Thu Apr 17 17:15:00 CST 2007</td>
                        </tr>
                        <tr>
                           <td>Category</td>
                           <td/>
                        </tr>
                        <tr>
                           <td>Clinical Status</td>
                           <td>active</td>
                        </tr>
                        <tr>
                           <td>Onset</td>
                           <td>
                              <div>Thu Apr 17 00:00:00 CST 2007</div>
                           </td>
                        </tr>
                     </tbody>
                  </table>
               </div>
            </text>
            <identifier>
               <value value="4991db40-4c4f-41e8-9146-50c12d716424"/>
            </identifier>
            <patient>
               <reference value="Patient/2"/>
            </patient>
            <asserter>
               <reference value="Practitioner/19"/>
            </asserter>
            <dateRecorded value="2007-04-17"/>
            <code>
               <coding>
                  <system value="http://snomed.info/sct"/>
                  <code value="194828000"/>
                  <display value="Angina"/>
               </coding>
            </code>
            <category>
               <coding>
                  <system value="http://hl7.org/fhir/condition-category"/>
                  <code value="diagnosis"/>
               </coding>
            </category>
            <clinicalStatus value="active"/>
            <verificationStatus value="confirmed"/>
            <onsetDateTime value="2007-04-17"/>
         </Condition>
      </resource>
   </entry>
   <entry>
      <resource>
         <Practitioner xmlns="http://hl7.org/fhir">
            <id value="19"/>
            <meta>
               <profile value="http://hl7.org/fhir/StructureDefinition/daf-pract"/>
            </meta>
            <text>
               <status value="generated"/>
               <div xmlns="http://www.w3.org/1999/xhtml">
                  <table class="hapiPropertyTable">
                     <tbody>
                        <tr>
                           <td>Identifier</td>
                           <td>222334444</td>
                        </tr>
                        <tr>
                           <td>Name</td>
                           <td/>
                        </tr>
                     </tbody>
                  </table>
               </div>
            </text>
            <identifier>
               <system value="urn:oid:2.16.840.1.113883.4.6"/>
               <value value="222334444"/>
            </identifier>
            <practitionerRole>
               <role>
                  <coding>
                     <system value="urn:oid:2.16.840.1.113883.6.101"/>
                     <code value="207QA0505X"/>
                     <display value="Adult Medicine"/>
                  </coding>
               </role>
            </practitionerRole>
         </Practitioner>
      </resource>
   </entry>
   <entry>
      <resource>
         <Condition xmlns="http://hl7.org/fhir">
            <id value="20"/>
            <meta>
               <profile value="http://hl7.org/fhir/StructureDefinition/daf-condition"/>
            </meta>
            <text>
               <status value="generated"/>
               <div xmlns="http://www.w3.org/1999/xhtml">
                  <table class="hapiPropertyTable">
                     <tbody>
                        <tr>
                           <td>Code</td>
                           <td>
                              <div>Pneumonia</div>
                           </td>
                        </tr>
                        <tr>
                           <td>Date Recorded</td>
                           <td>Thu Mar 16 12:30:00 CST 1998</td>
                        </tr>
                        <tr>
                           <td>Category</td>
                           <td/>
                        </tr>
                        <tr>
                           <td>Clinical Status</td>
                           <td>resolved</td>
                        </tr>
                        <tr>
                           <td>Onset</td>
                           <td>
                              <div>Fri Mar 10 00:00:00 CST 1998</div>
                           </td>
                        </tr>
                     </tbody>
                  </table>
               </div>
            </text>
            <identifier>
               <value value="10506b4d-c30a-4220-8bec-97bff9568fd1"/>
            </identifier>
            <patient>
               <reference value="Patient/2"/>
            </patient>
            <asserter>
               <reference value="Practitioner/21"/>
            </asserter>
            <dateRecorded value="1998-03-16"/>
            <code>
               <coding>
                  <system value="http://snomed.info/sct"/>
                  <code value="233604007"/>
                  <display value="Pneumonia"/>
               </coding>
            </code>
            <category>
               <coding>
                  <system value="http://hl7.org/fhir/condition-category"/>
                  <code value="diagnosis"/>
               </coding>
            </category>
            <clinicalStatus value="resolved"/>
            <verificationStatus value="confirmed"/>
            <onsetDateTime value="1998-03-10"/>
            <abatementDateTime value="1998-03-16"/>
         </Condition>
      </resource>
   </entry>
   <entry>
      <resource>
         <Practitioner xmlns="http://hl7.org/fhir">
            <id value="21"/>
            <meta>
               <profile value="http://hl7.org/fhir/StructureDefinition/daf-pract"/>
            </meta>
            <text>
               <status value="generated"/>
               <div xmlns="http://www.w3.org/1999/xhtml">
                  <table class="hapiPropertyTable">
                     <tbody>
                        <tr>
                           <td>Identifier</td>
                           <td>555555555</td>
                        </tr>
                        <tr>
                           <td>Name</td>
                           <td/>
                        </tr>
                     </tbody>
                  </table>
               </div>
            </text>
            <identifier>
               <system value="urn:oid:2.16.840.1.113883.4.6"/>
               <value value="555555555"/>
            </identifier>
            <practitionerRole>
               <role>
                  <coding>
                     <system value="urn:oid:2.16.840.1.113883.6.101"/>
                     <code value="207QA0505X"/>
                     <display value="Adult Medicine"/>
                  </coding>
               </role>
            </practitionerRole>
         </Practitioner>
      </resource>
   </entry>
   <entry>
      <resource>
         <Encounter xmlns="http://hl7.org/fhir">
            <id value="22"/>
            <meta>
               <profile value="http://hl7.org/fhir/StructureDefinition/daf-encounter"/>
            </meta>
            <text>
               <status value="generated"/>
               <div xmlns="http://www.w3.org/1999/xhtml">
                  <table class="hapiPropertyTable">
                     <tbody>
                        <tr>
                           <td>Type</td>
                           <td>
                              <div>Office outpatient visit 15 minutes</div>
                           </td>
                        </tr>
                        <tr>
                           <td>Start</td>
                           <td>
                              <div>Sun Sep 27 02:00:00 CST 2012</div>
                           </td>
                        </tr>
                     </tbody>
                  </table>
               </div>
            </text>
            <identifier>
               <value value="2a620155-9d11-439e-92b3-5d9815ff4de8"/>
            </identifier>
            <status value="finished"/>
            <type>
               <coding>
                  <system value="http://www.ama-assn.org/go/cpt"/>
                  <code value="99213"/>
                  <display value="Office outpatient visit 15 minutes"/>
               </coding>
            </type>
            <patient>
               <reference value="Patient/2"/>
            </patient>
            <participant>
               <type>
                  <coding>
                     <system value="http://hl7.org/fhir/v3/ParticipationType"/>
                     <code value="PART"/>
                     <display value="Participation"/>
                  </coding>
               </type>
               <individual>
                  <reference value="Practitioner/23"/>
               </individual>
            </participant>
            <period>
               <start value="2012-09-27T13:00:00+05:00"/>
            </period>
            <indication>
               <reference value="Condition/24"/>
            </indication>
            <location>
               <location>
                  <reference value="Location/25"/>
               </location>
            </location>
         </Encounter>
      </resource>
   </entry>
   <entry>
      <resource>
         <Practitioner xmlns="http://hl7.org/fhir">
            <id value="23"/>
            <meta>
               <profile value="http://hl7.org/fhir/StructureDefinition/daf-pract"/>
            </meta>
            <text>
               <status value="generated"/>
               <div xmlns="http://www.w3.org/1999/xhtml">
                  <table class="hapiPropertyTable">
                     <tbody>
                        <tr>
                           <td>Identifier</td>
                           <td>333444555</td>
                        </tr>
                        <tr>
                           <td>Name</td>
                           <td/>
                        </tr>
                     </tbody>
                  </table>
               </div>
            </text>
            <identifier>
               <system value="urn:oid:2.16.840.1.113883.4.6"/>
               <value value="333444555"/>
            </identifier>
            <practitionerRole>
               <role>
                  <coding>
                     <system value="http://snomed.info/sct"/>
                     <code value="59058001"/>
                     <display value="General Physician"/>
                  </coding>
               </role>
            </practitionerRole>
         </Practitioner>
      </resource>
   </entry>
   <entry>
      <resource>
         <Condition xmlns="http://hl7.org/fhir">
            <id value="24"/>
            <meta>
               <profile value="http://hl7.org/fhir/StructureDefinition/daf-condition"/>
            </meta>
            <text>
               <status value="generated"/>
               <div xmlns="http://www.w3.org/1999/xhtml">
                  <table class="hapiPropertyTable">
                     <tbody>
                        <tr>
                           <td>Code</td>
                           <td>
                              <div>Pneumonia</div>
                           </td>
                        </tr>
                        <tr>
                           <td>Category</td>
                           <td/>
                        </tr>
                        <tr>
                           <td>Clinical Status</td>
                           <td>active</td>
                        </tr>
                        <tr>
                           <td>Onset</td>
                           <td>
                              <div>Fri Sep 25 00:30:00 CST 2012</div>
                           </td>
                        </tr>
                     </tbody>
                  </table>
               </div>
            </text>
            <identifier>
               <system value="urn:uuid:db734647-fc99-424c-a864-7e3cda82e703"/>
               <value value="45665"/>
            </identifier>
            <patient>
               <reference value="Patient/2"/>
            </patient>
            <code>
               <coding>
                  <system value="http://snomed.info/sct"/>
                  <code value="233604007"/>
                  <display value="Pneumonia"/>
               </coding>
            </code>
            <category>
               <coding>
                  <system value="http://hl7.org/fhir/condition-category"/>
                  <code value="finding"/>
               </coding>
            </category>
            <clinicalStatus value="active"/>
            <verificationStatus value="confirmed"/>
            <onsetDateTime value="2012-09-25T11:30:00+05:00"/>
         </Condition>
      </resource>
   </entry>
   <entry>
      <resource>
         <Location xmlns="http://hl7.org/fhir">
            <id value="25"/>
            <meta>
               <profile value="http://hl7.org/fhir/StructureDefinition/daf-location"/>
            </meta>
            <text>
               <status value="generated"/>
               <div xmlns="http://www.w3.org/1999/xhtml">
                  <table class="hapiPropertyTable">
                     <tbody>
                        <tr>
                           <td>Name</td>
                           <td>Good Health Urgent Care</td>
                        </tr>
                     </tbody>
                  </table>
               </div>
            </text>
            <name value="Good Health Urgent Care"/>
            <telecom>
               <system value="phone"/>
               <value value=" +1(555)555-1030"/>
               <use value="work"/>
            </telecom>
            <address>
               <line value="1007 Health Drive"/>
               <city value="Portland"/>
               <state value="OR"/>
               <postalCode value="99123"/>
               <country value="US"/>
            </address>
         </Location>
      </resource>
   </entry>
   <entry>
      <resource>
         <AllergyIntolerance xmlns="http://hl7.org/fhir">
            <id value="26"/>
            <meta>
               <profile value="http://hl7.org/fhir/StructureDefinition/daf-allergyintolerance"/>
            </meta>
            <text>
               <status value="generated"/>
               <div xmlns="http://www.w3.org/1999/xhtml">
                  <table class="hapiPropertyTable">
                     <tbody>
                        <tr>
                           <td>Substance</td>
                           <td>
                              <div>Codeine</div>
                           </td>
                        </tr>
                        <tr>
                           <td>Onset</td>
                           <td>
                              <div>Mon May 01 13:45:00 CST 1998</div>
                           </td>
                        </tr>
                        <tr>
                           <td>Reaction</td>
                           <td>
                              <span>
                                 <div>Wheezing</div>
                              </span>
                           </td>
                        </tr>
                     </tbody>
                  </table>
               </div>
            </text>
            <identifier>
               <value value="b03805bd-2eb6-4ab8-a9ff-473c6653971a"/>
            </identifier>
            <onset value="1998-05-01T11:45:00-08:00"/>
            <recorder>
               <reference value="Practitioner/27"/>
            </recorder>
            <patient>
               <reference value="Patient/2"/>
            </patient>
            <substance>
               <coding>
                  <system value="http://www.nlm.nih.gov/research/umls/rxnorm"/>
                  <code value="2670"/>
                  <display value="Codeine"/>
               </coding>
            </substance>
            <status value="active"/>
            <category value="other"/>
            <reaction>
               <manifestation>
                  <coding>
                     <system value="http://snomed.info/sct"/>
                     <code value="56018004"/>
                     <display value="Wheezing"/>
                  </coding>
               </manifestation>
               <severity value="moderate"/>
            </reaction>
         </AllergyIntolerance>
      </resource>
   </entry>
   <entry>
      <resource>
         <Practitioner xmlns="http://hl7.org/fhir">
            <id value="27"/>
            <meta>
               <profile value="http://hl7.org/fhir/StructureDefinition/daf-pract"/>
            </meta>
            <text>
               <status value="generated"/>
               <div xmlns="http://www.w3.org/1999/xhtml">
                  <table class="hapiPropertyTable">
                     <tbody>
                        <tr>
                           <td>Identifier</td>
                           <td>555555555</td>
                        </tr>
                        <tr>
                           <td>Name</td>
                           <td/>
                        </tr>
                     </tbody>
                  </table>
               </div>
            </text>
            <identifier>
               <system value="urn:oid:2.16.840.1.113883.4.6"/>
               <value value="555555555"/>
            </identifier>
            <practitionerRole>
               <role>
                  <coding>
                     <system value="urn:oid:2.16.840.1.113883.6.101"/>
                     <code value="207QA0505X"/>
                     <display value="Adult Medicine"/>
                  </coding>
               </role>
            </practitionerRole>
         </Practitioner>
      </resource>
   </entry>
   <entry>
      <resource>
         <AllergyIntolerance xmlns="http://hl7.org/fhir">
            <id value="28"/>
            <meta>
               <profile value="http://hl7.org/fhir/StructureDefinition/daf-allergyintolerance"/>
            </meta>
            <text>
               <status value="generated"/>
               <div xmlns="http://www.w3.org/1999/xhtml">
                  <table class="hapiPropertyTable">
                     <tbody>
                        <tr>
                           <td>Substance</td>
                           <td>
                              <div>Penicillin</div>
                           </td>
                        </tr>
                        <tr>
                           <td>Onset</td>
                           <td>
                              <div>Mon May 01 13:45:00 CST 1998</div>
                           </td>
                        </tr>
                        <tr>
                           <td>Reaction</td>
                           <td>
                              <span>
                                 <div>Nausea</div>
                              </span>
                           </td>
                        </tr>
                     </tbody>
                  </table>
               </div>
            </text>
            <identifier>
               <value value="36e3e930-7b14-11db-9fe1-0800200c9a66"/>
            </identifier>
            <onset value="1998-05-01T11:45:00-08:00"/>
            <recorder>
               <reference value="Practitioner/29"/>
            </recorder>
            <patient>
               <reference value="Patient/2"/>
            </patient>
            <substance>
               <coding>
                  <system value="http://www.nlm.nih.gov/research/umls/rxnorm"/>
                  <code value="70618"/>
                  <display value="Penicillin"/>
               </coding>
            </substance>
            <status value="active"/>
            <criticality value="CRITH"/>
            <category value="other"/>
            <reaction>
               <manifestation>
                  <coding>
                     <system value="http://snomed.info/sct"/>
                     <code value="422587007"/>
                     <display value="Nausea"/>
                  </coding>
               </manifestation>
               <onset value="2008-02-26T08:05:00-08:00"/>
               <severity value="mild"/>
            </reaction>
         </AllergyIntolerance>
      </resource>
   </entry>
   <entry>
      <resource>
         <Practitioner xmlns="http://hl7.org/fhir">
            <id value="29"/>
            <meta>
               <profile value="http://hl7.org/fhir/StructureDefinition/daf-pract"/>
            </meta>
            <text>
               <status value="generated"/>
               <div xmlns="http://www.w3.org/1999/xhtml">
                  <table class="hapiPropertyTable">
                     <tbody>
                        <tr>
                           <td>Identifier</td>
                           <td>555555555</td>
                        </tr>
                        <tr>
                           <td>Name</td>
                           <td/>
                        </tr>
                     </tbody>
                  </table>
               </div>
            </text>
            <identifier>
               <system value="urn:oid:2.16.840.1.113883.4.6"/>
               <value value="555555555"/>
            </identifier>
            <practitionerRole>
               <role>
                  <coding>
                     <system value="urn:oid:2.16.840.1.113883.6.101"/>
                     <code value="207QA0505X"/>
                     <display value="Adult Medicine"/>
                  </coding>
               </role>
            </practitionerRole>
         </Practitioner>
      </resource>
   </entry>
   <entry>
      <resource>
         <Device xmlns="http://hl7.org/fhir">
            <id value="30"/>
            <text>
               <status value="generated"/>
               <div xmlns="http://www.w3.org/1999/xhtml">
                  <table class="hapiPropertyTable">
                     <tbody>
                        <tr>
                           <td>Identifier</td>
                           <td>24993f33-6222-41ce-add6-37a9d3da6acb</td>
                        </tr>
                        <tr>
                           <td>Type</td>
                           <td>
                              <div>cane</div>
                           </td>
                        </tr>
                     </tbody>
                  </table>
               </div>
            </text>
            <identifier>
               <value value="24993f33-6222-41ce-add6-37a9d3da6acb"/>
            </identifier>
            <type>
               <coding>
                  <system value="http://snomed.info/sct"/>
                  <code value="87405001"/>
                  <display value="cane"/>
               </coding>
            </type>
            <patient>
               <reference value="Patient/2"/>
            </patient>
         </Device>
      </resource>
   </entry>
   <entry>
      <resource>
         <Device xmlns="http://hl7.org/fhir">
            <id value="31"/>
            <text>
               <status value="generated"/>
               <div xmlns="http://www.w3.org/1999/xhtml">
                  <table class="hapiPropertyTable">
                     <tbody>
                        <tr>
                           <td>Identifier</td>
                           <td>24993f33-6222-41ce-add6-37a9d3da6acb</td>
                        </tr>
                        <tr>
                           <td>Type</td>
                           <td>
                              <div>cardiac pacemaker, device (physical object)</div>
                           </td>
                        </tr>
                     </tbody>
                  </table>
               </div>
            </text>
            <identifier>
               <value value="24993f33-6222-41ce-add6-37a9d3da6acb"/>
            </identifier>
            <type>
               <coding>
                  <system value="http://snomed.info/sct"/>
                  <code value="14106009"/>
                  <display value="cardiac pacemaker, device (physical object)"/>
               </coding>
            </type>
            <patient>
               <reference value="Patient/2"/>
            </patient>
         </Device>
      </resource>
   </entry>
   <entry>
      <resource>
         <Device xmlns="http://hl7.org/fhir">
            <id value="32"/>
            <text>
               <status value="generated"/>
               <div xmlns="http://www.w3.org/1999/xhtml">
                  <table class="hapiPropertyTable">
                     <tbody>
                        <tr>
                           <td>Identifier</td>
                           <td>24993f33-6222-41ce-add6-37a9d3da6acb</td>
                        </tr>
                        <tr>
                           <td>Type</td>
                           <td>
                              <div>upper gastrointestinal prosthesis (physical object)</div>
                           </td>
                        </tr>
                     </tbody>
                  </table>
               </div>
            </text>
            <identifier>
               <value value="24993f33-6222-41ce-add6-37a9d3da6acb"/>
            </identifier>
            <type>
               <coding>
                  <system value="http://snomed.info/sct"/>
                  <code value="303406003"/>
                  <display value="upper gastrointestinal prosthesis (physical object)"/>
               </coding>
            </type>
            <patient>
               <reference value="Patient/2"/>
            </patient>
         </Device>
      </resource>
   </entry>
   <entry>
      <resource>
         <Procedure xmlns="http://hl7.org/fhir">
            <id value="33"/>
            <meta>
               <profile value="http://hl7.org/fhir/StructureDefinition/daf-procedure"/>
            </meta>
            <text>
               <status value="generated"/>
               <div xmlns="http://www.w3.org/1999/xhtml">
                  <table class="hapiPropertyTable">
                     <tbody>
                        <tr>
                           <td>Type</td>
                           <td>
                              <div>Stent Placement</div>
                           </td>
                        </tr>
                        <tr>
                           <td>Date/Period</td>
                           <td>Mon May 12 00:00:00 CST 2013 - ?</td>
                        </tr>
                     </tbody>
                  </table>
               </div>
            </text>
            <identifier>
               <value value="d5b614bd-01ce-410d-8726-e1fd01dcc72a"/>
            </identifier>
            <subject>
               <reference value="Patient/2"/>
            </subject>
            <status value="completed"/>
            <code>
               <coding>
                  <system value="http://snomed.info/sct"/>
                  <code value="103716009"/>
                  <display value="Stent Placement"/>
               </coding>
            </code>
            <bodySite>
               <coding>
                  <system value="http://snomed.info/sct"/>
                  <code value="28273000"/>
                  <display value="bile duct"/>
               </coding>
            </bodySite>
            <performer>
               <actor>
                  <reference value="Practitioner/34"/>
               </actor>
            </performer>
            <performedPeriod>
               <start value="2013-05-12"/>
            </performedPeriod>
         </Procedure>
      </resource>
   </entry>
   <entry>
      <resource>
         <Practitioner xmlns="http://hl7.org/fhir">
            <id value="34"/>
            <meta>
               <profile value="http://hl7.org/fhir/StructureDefinition/daf-pract"/>
            </meta>
            <text>
               <status value="generated"/>
               <div xmlns="http://www.w3.org/1999/xhtml">
                  <table class="hapiPropertyTable">
                     <tbody>
                        <tr>
                           <td>Identifier</td>
                           <td>1234</td>
                        </tr>
                        <tr>
                           <td>Name</td>
                           <td/>
                        </tr>
                     </tbody>
                  </table>
               </div>
            </text>
            <identifier>
               <system value="urn:oid:2.16.840.1.113883.19"/>
               <value value="1234"/>
            </identifier>
            <telecom>
               <system value="phone"/>
               <value value=" +1(555)-555-5004"/>
               <use value="work"/>
            </telecom>
            <address>
               <line value="1004 Health Care Drive"/>
               <city value="Ann Arbor"/>
               <state value="MI"/>
               <postalCode value="02368"/>
               <country value="US"/>
            </address>
            <practitionerRole>
               <managingOrganization>
                  <reference value="Organization/35"/>
               </managingOrganization>
            </practitionerRole>
         </Practitioner>
      </resource>
   </entry>
   <entry>
      <resource>
         <Organization xmlns="http://hl7.org/fhir">
            <id value="35"/>
            <meta>
               <profile value="http://hl7.org/fhir/StructureDefinition/daf-organization"/>
            </meta>
            <text>
               <status value="generated"/>
               <div xmlns="http://www.w3.org/1999/xhtml">
                  <table class="hapiPropertyTable">
                     <tbody>
                        <tr>
                           <td>Identifier</td>
                           <td>2.16.840.1.113883.19.5</td>
                        </tr>
                        <tr>
                           <td>Name</td>
                           <td>Community Health and Hospitals</td>
                        </tr>
                     </tbody>
                  </table>
               </div>
            </text>
            <identifier>
               <value value="2.16.840.1.113883.19.5"/>
            </identifier>
            <name value="Community Health and Hospitals"/>
            <telecom>
               <system value="phone"/>
               <value value="+1(555)-555-5005"/>
               <use value="work"/>
            </telecom>
            <address>
               <line value="1003 Health Care Drive"/>
               <city value="Ann Arbor"/>
               <state value="MI"/>
               <postalCode value="02368"/>
               <country value="US"/>
            </address>
         </Organization>
      </resource>
   </entry>
   <entry>
      <resource>
         <Observation xmlns="http://hl7.org/fhir">
            <id value="36"/>
            <meta>
               <profile value="http://hl7.org/fhir/StructureDefinition/daf-vitalsigns"/>
            </meta>
            <text>
               <status value="generated"/>
               <div xmlns="http://www.w3.org/1999/xhtml">
                  <table class="hapiPropertyTable">
                     <tbody>
                        <tr>
                           <td>Code</td>
                           <td>
                              <div>BP Diastolic</div>
                           </td>
                        </tr>
                        <tr>
                           <td>Date/Period</td>
                           <td>Thu Sep 10 00:00:00 CST 2012 - ?</td>
                        </tr>
                        <tr>
                           <td>Result</td>
                           <td>
                              <div>88mm[Hg]</div>
                           </td>
                        </tr>
                        <tr>
                           <td>Interpretation</td>
                           <td/>
                        </tr>
                     </tbody>
                  </table>
               </div>
            </text>
            <identifier>
               <value value="1c2748b7-e440-41ba-bc01-dde97d84a036"/>
            </identifier>
            <status value="final"/>
            <code>
               <coding>
                  <system value="http://loinc.org"/>
                  <code value="8462-4"/>
                  <display value="BP Diastolic"/>
               </coding>
            </code>
            <subject>
               <reference value="Patient/2"/>
            </subject>
            <effectivePeriod>
               <start value="2012-09-10"/>
            </effectivePeriod>
            <issued value="2011-09-01T09:15:00-08:00"/>
            <performer>
               <reference value="Practitioner/37"/>
            </performer>
            <valueQuantity>
               <value value="88"/>
               <unit value="mm[Hg]"/>
            </valueQuantity>
            <interpretation>
               <coding>
                  <system value="http://hl7.org/fhir/v2/0078"/>
                  <code value="N"/>
               </coding>
            </interpretation>
         </Observation>
      </resource>
   </entry>
   <entry>
      <resource>
         <Practitioner xmlns="http://hl7.org/fhir">
            <id value="37"/>
            <meta>
               <profile value="http://hl7.org/fhir/StructureDefinition/daf-pract"/>
            </meta>
            <text>
               <status value="generated"/>
               <div xmlns="http://www.w3.org/1999/xhtml">
                  <table class="hapiPropertyTable">
                     <tbody>
                        <tr>
                           <td>Identifier</td>
                           <td>555555555</td>
                        </tr>
                        <tr>
                           <td>Name</td>
                           <td/>
                        </tr>
                     </tbody>
                  </table>
               </div>
            </text>
            <identifier>
               <system value="urn:oid:2.16.840.1.113883.4.6"/>
               <value value="555555555"/>
            </identifier>
            <practitionerRole>
               <role>
                  <coding>
                     <system value="urn:oid:2.16.840.1.113883.6.101"/>
                     <code value="207QA0505X"/>
                     <display value="Adult Medicine"/>
                  </coding>
               </role>
            </practitionerRole>
         </Practitioner>
      </resource>
   </entry>
   <entry>
      <resource>
         <Observation xmlns="http://hl7.org/fhir">
            <id value="38"/>
            <meta>
               <profile value="http://hl7.org/fhir/StructureDefinition/daf-vitalsigns"/>
            </meta>
            <text>
               <status value="generated"/>
               <div xmlns="http://www.w3.org/1999/xhtml">
                  <table class="hapiPropertyTable">
                     <tbody>
                        <tr>
                           <td>Code</td>
                           <td>
                              <div>Intravascular Systolic</div>
                           </td>
                        </tr>
                        <tr>
                           <td>Date/Period</td>
                           <td>Thu Sep 10 00:00:00 CST 2012 - ?</td>
                        </tr>
                        <tr>
                           <td>Result</td>
                           <td>
                              <div>132mm[Hg]</div>
                           </td>
                        </tr>
                        <tr>
                           <td>Interpretation</td>
                           <td/>
                        </tr>
                     </tbody>
                  </table>
               </div>
            </text>
            <identifier>
               <value value="a0e39c70-9674-4b2a-9837-cdf74200d8d5"/>
            </identifier>
            <status value="final"/>
            <code>
               <coding>
                  <system value="http://loinc.org"/>
                  <code value="8480-6"/>
                  <display value="Intravascular Systolic"/>
               </coding>
            </code>
            <subject>
               <reference value="Patient/2"/>
            </subject>
            <effectivePeriod>
               <start value="2012-09-10"/>
            </effectivePeriod>
            <issued value="2012-09-10T11:45:00-08:00"/>
            <performer>
               <reference value="Practitioner/39"/>
            </performer>
            <valueQuantity>
               <value value="132"/>
               <unit value="mm[Hg]"/>
            </valueQuantity>
            <interpretation>
               <coding>
                  <system value="http://hl7.org/fhir/v2/0078"/>
                  <code value="N"/>
               </coding>
            </interpretation>
         </Observation>
      </resource>
   </entry>
   <entry>
      <resource>
         <Practitioner xmlns="http://hl7.org/fhir">
            <id value="39"/>
            <meta>
               <profile value="http://hl7.org/fhir/StructureDefinition/daf-pract"/>
            </meta>
            <text>
               <status value="generated"/>
               <div xmlns="http://www.w3.org/1999/xhtml">
                  <table class="hapiPropertyTable">
                     <tbody>
                        <tr>
                           <td>Identifier</td>
                           <td>555555555</td>
                        </tr>
                        <tr>
                           <td>Name</td>
                           <td/>
                        </tr>
                     </tbody>
                  </table>
               </div>
            </text>
            <identifier>
               <system value="urn:oid:2.16.840.1.113883.4.6"/>
               <value value="555555555"/>
            </identifier>
            <practitionerRole>
               <role>
                  <coding>
                     <system value="urn:oid:2.16.840.1.113883.6.101"/>
                     <code value="207QA0505X"/>
                     <display value="Adult Medicine"/>
                  </coding>
               </role>
            </practitionerRole>
         </Practitioner>
      </resource>
   </entry>
   <entry>
      <resource>
         <Observation xmlns="http://hl7.org/fhir">
            <id value="40"/>
            <meta>
               <profile value="http://hl7.org/fhir/StructureDefinition/daf-vitalsigns"/>
            </meta>
            <text>
               <status value="generated"/>
               <div xmlns="http://www.w3.org/1999/xhtml">
                  <table class="hapiPropertyTable">
                     <tbody>
                        <tr>
                           <td>Code</td>
                           <td>
                              <div>Height</div>
                           </td>
                        </tr>
                        <tr>
                           <td>Date/Period</td>
                           <td>Thu Sep 10 00:00:00 CST 2012 - ?</td>
                        </tr>
                        <tr>
                           <td>Result</td>
                           <td>
                              <div>177cm</div>
                           </td>
                        </tr>
                        <tr>
                           <td>Interpretation</td>
                           <td/>
                        </tr>
                     </tbody>
                  </table>
               </div>
            </text>
            <identifier>
               <value value="ed9589fd-fda0-41f7-a3d0-dc537554f5c2"/>
            </identifier>
            <status value="final"/>
            <code>
               <coding>
                  <system value="http://loinc.org"/>
                  <code value="8302-2"/>
                  <display value="Height"/>
               </coding>
            </code>
            <subject>
               <reference value="Patient/2"/>
            </subject>
            <effectivePeriod>
               <start value="2012-09-10"/>
            </effectivePeriod>
            <issued value="2012-09-10T11:45:00-08:00"/>
            <performer>
               <reference value="Practitioner/41"/>
            </performer>
            <valueQuantity>
               <value value="177"/>
               <unit value="cm"/>
            </valueQuantity>
            <interpretation>
               <coding>
                  <system value="http://hl7.org/fhir/v2/0078"/>
                  <code value="N"/>
               </coding>
            </interpretation>
         </Observation>
      </resource>
   </entry>
   <entry>
      <resource>
         <Practitioner xmlns="http://hl7.org/fhir">
            <id value="41"/>
            <meta>
               <profile value="http://hl7.org/fhir/StructureDefinition/daf-pract"/>
            </meta>
            <text>
               <status value="generated"/>
               <div xmlns="http://www.w3.org/1999/xhtml">
                  <table class="hapiPropertyTable">
                     <tbody>
                        <tr>
                           <td>Identifier</td>
                           <td>555555555</td>
                        </tr>
                        <tr>
                           <td>Name</td>
                           <td/>
                        </tr>
                     </tbody>
                  </table>
               </div>
            </text>
            <identifier>
               <system value="urn:oid:2.16.840.1.113883.4.6"/>
               <value value="555555555"/>
            </identifier>
            <practitionerRole>
               <role>
                  <coding>
                     <system value="urn:oid:2.16.840.1.113883.6.101"/>
                     <code value="207QA0505X"/>
                     <display value="Adult Medicine"/>
                  </coding>
               </role>
            </practitionerRole>
         </Practitioner>
      </resource>
   </entry>
   <entry>
      <resource>
         <Observation xmlns="http://hl7.org/fhir">
            <id value="42"/>
            <meta>
               <profile value="http://hl7.org/fhir/StructureDefinition/daf-vitalsigns"/>
            </meta>
            <text>
               <status value="generated"/>
               <div xmlns="http://www.w3.org/1999/xhtml">
                  <table class="hapiPropertyTable">
                     <tbody>
                        <tr>
                           <td>Code</td>
                           <td>
                              <div>Patient Body Weight - Measured</div>
                           </td>
                        </tr>
                        <tr>
                           <td>Date/Period</td>
                           <td>Thu Sep 10 00:00:00 CST 2012 - ?</td>
                        </tr>
                        <tr>
                           <td>Result</td>
                           <td>
                              <div>86kg</div>
                           </td>
                        </tr>
                        <tr>
                           <td>Interpretation</td>
                           <td/>
                        </tr>
                     </tbody>
                  </table>
               </div>
            </text>
            <identifier>
               <value value="f4e729e2-a97f-4a7e-8e23-c92f9b6b55cf"/>
            </identifier>
            <status value="final"/>
            <code>
               <coding>
                  <system value="http://loinc.org"/>
                  <code value="3141-9"/>
                  <display value="Patient Body Weight - Measured"/>
               </coding>
            </code>
            <subject>
               <reference value="Patient/2"/>
            </subject>
            <effectivePeriod>
               <start value="2012-09-10"/>
            </effectivePeriod>
            <issued value="2012-09-10T11:45:00-08:00"/>
            <performer>
               <reference value="Practitioner/43"/>
            </performer>
            <valueQuantity>
               <value value="86"/>
               <unit value="kg"/>
            </valueQuantity>
            <interpretation>
               <coding>
                  <system value="http://hl7.org/fhir/v2/0078"/>
                  <code value="N"/>
               </coding>
            </interpretation>
         </Observation>
      </resource>
   </entry>
   <entry>
      <resource>
         <Practitioner xmlns="http://hl7.org/fhir">
            <id value="43"/>
            <meta>
               <profile value="http://hl7.org/fhir/StructureDefinition/daf-pract"/>
            </meta>
            <text>
               <status value="generated"/>
               <div xmlns="http://www.w3.org/1999/xhtml">
                  <table class="hapiPropertyTable">
                     <tbody>
                        <tr>
                           <td>Identifier</td>
                           <td>555555555</td>
                        </tr>
                        <tr>
                           <td>Name</td>
                           <td/>
                        </tr>
                     </tbody>
                  </table>
               </div>
            </text>
            <identifier>
               <system value="urn:oid:2.16.840.1.113883.4.6"/>
               <value value="555555555"/>
            </identifier>
            <practitionerRole>
               <role>
                  <coding>
                     <system value="urn:oid:2.16.840.1.113883.6.101"/>
                     <code value="207QA0505X"/>
                     <display value="Adult Medicine"/>
                  </coding>
               </role>
            </practitionerRole>
         </Practitioner>
      </resource>
   </entry>
   <entry>
      <resource>
         <Observation xmlns="http://hl7.org/fhir">
            <id value="44"/>
            <meta>
               <profile value="http://hl7.org/fhir/StructureDefinition/daf-vitalsigns"/>
            </meta>
            <text>
               <status value="generated"/>
               <div xmlns="http://www.w3.org/1999/xhtml">
                  <table class="hapiPropertyTable">
                     <tbody>
                        <tr>
                           <td>Code</td>
                           <td>
                              <div>Patient Body Weight - Measured</div>
                           </td>
                        </tr>
                        <tr>
                           <td>Date/Period</td>
                           <td>Wed Sep 01 00:00:00 CST 2011 - ?</td>
                        </tr>
                        <tr>
                           <td>Result</td>
                           <td>
                              <div>88kg</div>
                           </td>
                        </tr>
                        <tr>
                           <td>Interpretation</td>
                           <td/>
                        </tr>
                     </tbody>
                  </table>
               </div>
            </text>
            <identifier>
               <value value="21b0f3d5-7d07-4f4f-ad7e-c33dc2ca3835"/>
            </identifier>
            <status value="final"/>
            <code>
               <coding>
                  <system value="http://loinc.org"/>
                  <code value="3141-9"/>
                  <display value="Patient Body Weight - Measured"/>
               </coding>
            </code>
            <subject>
               <reference value="Patient/2"/>
            </subject>
            <effectivePeriod>
               <start value="2011-09-01"/>
            </effectivePeriod>
            <issued value="2011-09-01T09:15:00-08:00"/>
            <performer>
               <reference value="Practitioner/45"/>
            </performer>
            <valueQuantity>
               <value value="88"/>
               <unit value="kg"/>
            </valueQuantity>
            <interpretation>
               <coding>
                  <system value="http://hl7.org/fhir/v2/0078"/>
                  <code value="N"/>
               </coding>
            </interpretation>
         </Observation>
      </resource>
   </entry>
   <entry>
      <resource>
         <Practitioner xmlns="http://hl7.org/fhir">
            <id value="45"/>
            <meta>
               <profile value="http://hl7.org/fhir/StructureDefinition/daf-pract"/>
            </meta>
            <text>
               <status value="generated"/>
               <div xmlns="http://www.w3.org/1999/xhtml">
                  <table class="hapiPropertyTable">
                     <tbody>
                        <tr>
                           <td>Identifier</td>
                           <td>555555555</td>
                        </tr>
                        <tr>
                           <td>Name</td>
                           <td/>
                        </tr>
                     </tbody>
                  </table>
               </div>
            </text>
            <identifier>
               <system value="urn:oid:2.16.840.1.113883.4.6"/>
               <value value="555555555"/>
            </identifier>
            <practitionerRole>
               <role>
                  <coding>
                     <system value="urn:oid:2.16.840.1.113883.6.101"/>
                     <code value="207QA0505X"/>
                     <display value="Adult Medicine"/>
                  </coding>
               </role>
            </practitionerRole>
         </Practitioner>
      </resource>
   </entry>
   <entry>
      <resource>
         <Observation xmlns="http://hl7.org/fhir">
            <id value="46"/>
            <meta>
               <profile value="http://hl7.org/fhir/StructureDefinition/daf-vitalsigns"/>
            </meta>
            <text>
               <status value="generated"/>
               <div xmlns="http://www.w3.org/1999/xhtml">
                  <table class="hapiPropertyTable">
                     <tbody>
                        <tr>
                           <td>Code</td>
                           <td>
                              <div>BP Systolic</div>
                           </td>
                        </tr>
                        <tr>
                           <td>Date/Period</td>
                           <td>Wed Sep 01 00:00:00 CST 2011 - ?</td>
                        </tr>
                        <tr>
                           <td>Result</td>
                           <td>
                              <div>128mm[Hg]</div>
                           </td>
                        </tr>
                        <tr>
                           <td>Interpretation</td>
                           <td/>
                        </tr>
                     </tbody>
                  </table>
               </div>
            </text>
            <identifier>
               <value value="b046c35a-59c7-4215-ae09-9a8409a30b21"/>
            </identifier>
            <status value="final"/>
            <code>
               <coding>
                  <system value="http://loinc.org"/>
                  <code value="8480-6"/>
                  <display value="BP Systolic"/>
               </coding>
            </code>
            <subject>
               <reference value="Patient/2"/>
            </subject>
            <effectivePeriod>
               <start value="2011-09-01"/>
            </effectivePeriod>
            <issued value="2011-09-01T09:15:00-08:00"/>
            <performer>
               <reference value="Practitioner/47"/>
            </performer>
            <valueQuantity>
               <value value="128"/>
               <unit value="mm[Hg]"/>
            </valueQuantity>
            <interpretation>
               <coding>
                  <system value="http://hl7.org/fhir/v2/0078"/>
                  <code value="N"/>
               </coding>
            </interpretation>
         </Observation>
      </resource>
   </entry>
   <entry>
      <resource>
         <Practitioner xmlns="http://hl7.org/fhir">
            <id value="47"/>
            <meta>
               <profile value="http://hl7.org/fhir/StructureDefinition/daf-pract"/>
            </meta>
            <text>
               <status value="generated"/>
               <div xmlns="http://www.w3.org/1999/xhtml">
                  <table class="hapiPropertyTable">
                     <tbody>
                        <tr>
                           <td>Identifier</td>
                           <td>555555555</td>
                        </tr>
                        <tr>
                           <td>Name</td>
                           <td/>
                        </tr>
                     </tbody>
                  </table>
               </div>
            </text>
            <identifier>
               <system value="urn:oid:2.16.840.1.113883.4.6"/>
               <value value="555555555"/>
            </identifier>
            <practitionerRole>
               <role>
                  <coding>
                     <system value="urn:oid:2.16.840.1.113883.6.101"/>
                     <code value="207QA0505X"/>
                     <display value="Adult Medicine"/>
                  </coding>
               </role>
            </practitionerRole>
         </Practitioner>
      </resource>
   </entry>
   <entry>
      <resource>
         <Observation xmlns="http://hl7.org/fhir">
            <id value="48"/>
            <meta>
               <profile value="http://hl7.org/fhir/StructureDefinition/daf-vitalsigns"/>
            </meta>
            <text>
               <status value="generated"/>
               <div xmlns="http://www.w3.org/1999/xhtml">
                  <table class="hapiPropertyTable">
                     <tbody>
                        <tr>
                           <td>Code</td>
                           <td>
                              <div>Height</div>
                           </td>
                        </tr>
                        <tr>
                           <td>Date/Period</td>
                           <td>Wed Sep 01 00:00:00 CST 2011 - ?</td>
                        </tr>
                        <tr>
                           <td>Result</td>
                           <td>
                              <div>177cm</div>
                           </td>
                        </tr>
                        <tr>
                           <td>Interpretation</td>
                           <td/>
                        </tr>
                     </tbody>
                  </table>
               </div>
            </text>
            <identifier>
               <value value="05c047cd-28c3-41cd-be6c-56f8cc0c3f2f"/>
            </identifier>
            <status value="final"/>
            <code>
               <coding>
                  <system value="http://loinc.org"/>
                  <code value="8302-2"/>
                  <display value="Height"/>
               </coding>
            </code>
            <subject>
               <reference value="Patient/2"/>
            </subject>
            <effectivePeriod>
               <start value="2011-09-01"/>
            </effectivePeriod>
            <issued value="2011-09-01T09:15:00-08:00"/>
            <performer>
               <reference value="Practitioner/49"/>
            </performer>
            <valueQuantity>
               <value value="177"/>
               <unit value="cm"/>
            </valueQuantity>
            <interpretation>
               <coding>
                  <system value="http://hl7.org/fhir/v2/0078"/>
                  <code value="N"/>
               </coding>
            </interpretation>
         </Observation>
      </resource>
   </entry>
   <entry>
      <resource>
         <Practitioner xmlns="http://hl7.org/fhir">
            <id value="49"/>
            <meta>
               <profile value="http://hl7.org/fhir/StructureDefinition/daf-pract"/>
            </meta>
            <text>
               <status value="generated"/>
               <div xmlns="http://www.w3.org/1999/xhtml">
                  <table class="hapiPropertyTable">
                     <tbody>
                        <tr>
                           <td>Identifier</td>
                           <td>555555555</td>
                        </tr>
                        <tr>
                           <td>Name</td>
                           <td/>
                        </tr>
                     </tbody>
                  </table>
               </div>
            </text>
            <identifier>
               <system value="urn:oid:2.16.840.1.113883.4.6"/>
               <value value="555555555"/>
            </identifier>
            <practitionerRole>
               <role>
                  <coding>
                     <system value="urn:oid:2.16.840.1.113883.6.101"/>
                     <code value="207QA0505X"/>
                     <display value="Adult Medicine"/>
                  </coding>
               </role>
            </practitionerRole>
         </Practitioner>
      </resource>
   </entry>
   <entry>
      <resource>
         <Observation xmlns="http://hl7.org/fhir">
            <id value="50"/>
            <meta>
               <profile value="http://hl7.org/fhir/StructureDefinition/daf-vitalsigns"/>
            </meta>
            <text>
               <status value="generated"/>
               <div xmlns="http://www.w3.org/1999/xhtml">
                  <table class="hapiPropertyTable">
                     <tbody>
                        <tr>
                           <td>Code</td>
                           <td>
                              <div>BP Diastolic</div>
                           </td>
                        </tr>
                        <tr>
                           <td>Date/Period</td>
                           <td>Wed Sep 01 00:00:00 CST 2011 - ?</td>
                        </tr>
                        <tr>
                           <td>Result</td>
                           <td>
                              <div>80mm[Hg]</div>
                           </td>
                        </tr>
                        <tr>
                           <td>Interpretation</td>
                           <td/>
                        </tr>
                     </tbody>
                  </table>
               </div>
            </text>
            <identifier>
               <value value="44f54e66-fb4b-4ee5-9ced-9574ef307a23"/>
            </identifier>
            <status value="final"/>
            <code>
               <coding>
                  <system value="http://loinc.org"/>
                  <code value="8462-4"/>
                  <display value="BP Diastolic"/>
               </coding>
            </code>
            <subject>
               <reference value="Patient/2"/>
            </subject>
            <effectivePeriod>
               <start value="2011-09-01"/>
            </effectivePeriod>
            <issued value="2011-09-01T09:15:00-08:00"/>
            <performer>
               <reference value="Practitioner/51"/>
            </performer>
            <valueQuantity>
               <value value="80"/>
               <unit value="mm[Hg]"/>
            </valueQuantity>
            <interpretation>
               <coding>
                  <system value="http://hl7.org/fhir/v2/0078"/>
                  <code value="N"/>
               </coding>
            </interpretation>
         </Observation>
      </resource>
   </entry>
   <entry>
      <resource>
         <Practitioner xmlns="http://hl7.org/fhir">
            <id value="51"/>
            <meta>
               <profile value="http://hl7.org/fhir/StructureDefinition/daf-pract"/>
            </meta>
            <text>
               <status value="generated"/>
               <div xmlns="http://www.w3.org/1999/xhtml">
                  <table class="hapiPropertyTable">
                     <tbody>
                        <tr>
                           <td>Identifier</td>
                           <td>555555555</td>
                        </tr>
                        <tr>
                           <td>Name</td>
                           <td/>
                        </tr>
                     </tbody>
                  </table>
               </div>
            </text>
            <identifier>
               <system value="urn:oid:2.16.840.1.113883.4.6"/>
               <value value="555555555"/>
            </identifier>
            <practitionerRole>
               <role>
                  <coding>
                     <system value="urn:oid:2.16.840.1.113883.6.101"/>
                     <code value="207QA0505X"/>
                     <display value="Adult Medicine"/>
                  </coding>
               </role>
            </practitionerRole>
         </Practitioner>
      </resource>
   </entry>
   <entry>
      <resource>
         <DiagnosticReport xmlns="http://hl7.org/fhir">
            <id value="52"/>
            <meta>
               <profile value="http://hl7.org/fhir/StructureDefinition/daf-diagnosticreport"/>
            </meta>
            <text>
               <status value="generated"/>
               <div xmlns="http://www.w3.org/1999/xhtml">
                  <div class="hapiHeaderText"> Blood chemistry test </div>
                  <table class="hapiPropertyTable">
                     <tbody>
                        <tr>
                           <td>Status</td>
                           <td>partial</td>
                        </tr>
                        <tr>
                           <td>Issued</td>
                           <td>20 March 2008 11:30:00</td>
                        </tr>
                     </tbody>
                  </table>
               </div>
            </text>
            <identifier>
               <value value="122ed3ae-6d9e-43d0-bfa2-434ea34b1426"/>
            </identifier>
            <status value="partial"/>
            <code>
               <coding>
                  <system value="http://snomed.info/sct"/>
                  <code value="166312007"/>
                  <display value="Blood chemistry test"/>
               </coding>
            </code>
            <subject>
               <reference value="Patient/2"/>
            </subject>
            <effectivePeriod>
               <start value="2008-03-20T09:30:00-08:00"/>
               <end value="2008-03-20T09:30:00-08:00"/>
            </effectivePeriod>
            <issued value="2008-03-20T09:30:00-08:00"/>
            <performer>
               <reference value="Practitioner/53"/>
            </performer>
            <result>
               <reference value="Observation/54"/>
            </result>
         </DiagnosticReport>
      </resource>
   </entry>
   <entry>
      <resource>
         <Practitioner xmlns="http://hl7.org/fhir">
            <id value="53"/>
            <meta>
               <profile value="http://hl7.org/fhir/StructureDefinition/daf-pract"/>
            </meta>
            <text>
               <status value="generated"/>
               <div xmlns="http://www.w3.org/1999/xhtml">
                  <table class="hapiPropertyTable">
                     <tbody>
                        <tr>
                           <td>Name</td>
                           <td/>
                        </tr>
                     </tbody>
                  </table>
               </div>
            </text>
            <extension url="http://hl7.org/fhir/StructureDefinition/data-absent-reason">
               <valueCoding>
                  <system value="http://hl7.org/fhir/data-absent-reason"/>
                  <code value="unknown"/>
                  <display value="Unknown"/>
               </valueCoding>
            </extension>
         </Practitioner>
      </resource>
   </entry>
   <entry>
      <resource>
         <Observation xmlns="http://hl7.org/fhir">
            <id value="54"/>
            <meta>
               <profile value="http://hl7.org/fhir/StructureDefinition/daf-resultobs"/>
            </meta>
            <text>
               <status value="generated"/>
               <div xmlns="http://www.w3.org/1999/xhtml">
                  <table class="hapiPropertyTable">
                     <tbody>
                        <tr>
                           <td>Code</td>
                           <td>
                              <div>Urea nitrogen, Serum</div>
                           </td>
                        </tr>
                        <tr>
                           <td>Date/Period</td>
                           <td>Wed Mar 20 11:30:00 CST 2008 - ?</td>
                        </tr>
                     </tbody>
                  </table>
               </div>
            </text>
            <identifier>
               <value value="aed821af-3330-4138-97f0-e84dfe5f3c35"/>
            </identifier>
            <status value="preliminary"/>
            <code>
               <coding>
                  <system value="http://loinc.org"/>
                  <code value="3094-0"/>
                  <display value="Urea nitrogen, Serum"/>
               </coding>
            </code>
            <subject>
               <reference value="Patient/2"/>
            </subject>
            <effectivePeriod>
               <start value="2008-03-20T09:30:00-08:00"/>
            </effectivePeriod>
            <dataAbsentReason>
               <coding>
                  <system value="http://hl7.org/fhir/data-absent-reason"/>
                  <code value="error"/>
                  <display value="Error"/>
               </coding>
            </dataAbsentReason>
         </Observation>
      </resource>
   </entry>
   <entry>
      <resource>
         <DiagnosticReport xmlns="http://hl7.org/fhir">
            <id value="55"/>
            <meta>
               <profile value="http://hl7.org/fhir/StructureDefinition/daf-diagnosticreport"/>
            </meta>
            <text>
               <status value="generated"/>
               <div xmlns="http://www.w3.org/1999/xhtml">
                  <div class="hapiHeaderText"> CBC W Auto Differential panel in Blood </div>
                  <table class="hapiPropertyTable">
                     <tbody>
                        <tr>
                           <td>Status</td>
                           <td>final</td>
                        </tr>
                        <tr>
                           <td>Issued</td>
                           <td>19 March 2008 10:30:00</td>
                        </tr>
                     </tbody>
                  </table>
               </div>
            </text>
            <identifier>
               <value value="7d5a02b0-67a4-11db-bd13-0800200c9a66"/>
            </identifier>
            <status value="final"/>
            <code>
               <coding>
                  <system value="http://loinc.org"/>
                  <code value="57021-8"/>
                  <display value="CBC W Auto Differential panel in Blood"/>
               </coding>
            </code>
            <subject>
               <reference value="Patient/2"/>
            </subject>
            <effectivePeriod>
               <start value="2008-03-19T08:30:00-08:00"/>
               <end value="2008-03-19T08:30:00-08:00"/>
            </effectivePeriod>
            <issued value="2008-03-19T08:30:00-08:00"/>
            <performer>
               <reference value="Practitioner/56"/>
            </performer>
            <result>
               <reference value="Observation/57"/>
            </result>
            <result>
               <reference value="Observation/59"/>
            </result>
            <result>
               <reference value="Observation/61"/>
            </result>
            <result>
               <reference value="Observation/63"/>
            </result>
            <result>
               <reference value="Observation/65"/>
            </result>
         </DiagnosticReport>
      </resource>
   </entry>
   <entry>
      <resource>
         <Practitioner xmlns="http://hl7.org/fhir">
            <id value="56"/>
            <meta>
               <profile value="http://hl7.org/fhir/StructureDefinition/daf-pract"/>
            </meta>
            <text>
               <status value="generated"/>
               <div xmlns="http://www.w3.org/1999/xhtml">
                  <table class="hapiPropertyTable">
                     <tbody>
                        <tr>
                           <td>Name</td>
                           <td/>
                        </tr>
                     </tbody>
                  </table>
               </div>
            </text>
            <extension url="http://hl7.org/fhir/StructureDefinition/data-absent-reason">
               <valueCoding>
                  <system value="http://hl7.org/fhir/data-absent-reason"/>
                  <code value="unknown"/>
                  <display value="Unknown"/>
               </valueCoding>
            </extension>
         </Practitioner>
      </resource>
   </entry>
   <entry>
      <resource>
         <Observation xmlns="http://hl7.org/fhir">
            <id value="57"/>
            <meta>
               <profile value="http://hl7.org/fhir/StructureDefinition/daf-resultobs"/>
            </meta>
            <text>
               <status value="generated"/>
               <div xmlns="http://www.w3.org/1999/xhtml">
                  <table class="hapiPropertyTable">
                     <tbody>
                        <tr>
                           <td>Code</td>
                           <td>
                              <div>Hematocrit</div>
                           </td>
                        </tr>
                        <tr>
                           <td>Date/Period</td>
                           <td>Tue Mar 19 10:30:00 CST 2008 - ?</td>
                        </tr>
                        <tr>
                           <td>Result</td>
                           <td>
                              <div>35.3%</div>
                           </td>
                        </tr>
                        <tr>
                           <td>Interpretation</td>
                           <td>
                              <div>Low</div>
                           </td>
                        </tr>
                     </tbody>
                  </table>
               </div>
            </text>
            <identifier>
               <value value="7c0704bb-9c40-41b5-9c7d-26b2d59e234f"/>
            </identifier>
            <status value="final"/>
            <code>
               <coding>
                  <system value="http://loinc.org"/>
                  <code value="4544-3"/>
                  <display value="Hematocrit"/>
               </coding>
            </code>
            <subject>
               <reference value="Patient/2"/>
            </subject>
            <effectivePeriod>
               <start value="2008-03-19T08:30:00-08:00"/>
            </effectivePeriod>
            <issued value="2008-03-19T08:30:00-08:00"/>
            <performer>
               <reference value="Practitioner/58"/>
            </performer>
            <valueQuantity>
               <value value="35.3"/>
               <unit value="%"/>
            </valueQuantity>
            <interpretation>
               <coding>
                  <system value="http://hl7.org/fhir/v2/0078"/>
                  <code value="L"/>
                  <display value="Low"/>
               </coding>
            </interpretation>
            <referenceRange>
               <low>
                  <value value="34.9"/>
                  <unit value="%"/>
               </low>
               <high>
                  <value value="44.5"/>
                  <unit value="%"/>
               </high>
            </referenceRange>
         </Observation>
      </resource>
   </entry>
   <entry>
      <resource>
         <Practitioner xmlns="http://hl7.org/fhir">
            <id value="58"/>
            <meta>
               <profile value="http://hl7.org/fhir/StructureDefinition/daf-pract"/>
            </meta>
            <text>
               <status value="generated"/>
               <div xmlns="http://www.w3.org/1999/xhtml">
                  <table class="hapiPropertyTable">
                     <tbody>
                        <tr>
                           <td>Identifier</td>
                           <td>333444444</td>
                        </tr>
                        <tr>
                           <td>Name</td>
                           <td/>
                        </tr>
                     </tbody>
                  </table>
               </div>
            </text>
            <identifier>
               <system value="urn:oid:2.16.840.1.113883.4.6"/>
               <value value="333444444"/>
            </identifier>
            <practitionerRole>
               <role>
                  <coding>
                     <system value="urn:oid:2.16.840.1.113883.6.101"/>
                     <code value="246Q00000X"/>
                     <display value="Technician, Pathology"/>
                  </coding>
               </role>
            </practitionerRole>
         </Practitioner>
      </resource>
   </entry>
   <entry>
      <resource>
         <Observation xmlns="http://hl7.org/fhir">
            <id value="59"/>
            <meta>
               <profile value="http://hl7.org/fhir/StructureDefinition/daf-resultobs"/>
            </meta>
            <text>
               <status value="generated"/>
               <div xmlns="http://www.w3.org/1999/xhtml">
                  <table class="hapiPropertyTable">
                     <tbody>
                        <tr>
                           <td>Code</td>
                           <td>
                              <div>Hemoglobin</div>
                           </td>
                        </tr>
                        <tr>
                           <td>Date/Period</td>
                           <td>Tue Mar 19 10:30:00 CST 2008 - ?</td>
                        </tr>
                        <tr>
                           <td>Result</td>
                           <td>
                              <div>13.2g/dL</div>
                           </td>
                        </tr>
                        <tr>
                           <td>Interpretation</td>
                           <td/>
                        </tr>
                     </tbody>
                  </table>
               </div>
            </text>
            <identifier>
               <value value="107c2dc0-67a5-11db-bd13-0800200c9a66"/>
            </identifier>
            <status value="final"/>
            <code>
               <coding>
                  <system value="http://loinc.org"/>
                  <code value="718-7"/>
                  <display value="Hemoglobin"/>
               </coding>
            </code>
            <subject>
               <reference value="Patient/2"/>
            </subject>
            <effectivePeriod>
               <start value="2008-03-19T08:30:00-08:00"/>
            </effectivePeriod>
            <issued value="2008-03-19T08:30:00-08:00"/>
            <performer>
               <reference value="Practitioner/60"/>
            </performer>
            <valueQuantity>
               <value value="13.2"/>
               <unit value="g/dL"/>
            </valueQuantity>
            <interpretation>
               <coding>
                  <system value="http://hl7.org/fhir/v2/0078"/>
                  <code value="N"/>
               </coding>
            </interpretation>
            <referenceRange>
               <low>
                  <value value="12.0"/>
                  <unit value="g/dL"/>
               </low>
               <high>
                  <value value="15.5"/>
                  <unit value="g/dL"/>
               </high>
            </referenceRange>
         </Observation>
      </resource>
   </entry>
   <entry>
      <resource>
         <Practitioner xmlns="http://hl7.org/fhir">
            <id value="60"/>
            <meta>
               <profile value="http://hl7.org/fhir/StructureDefinition/daf-pract"/>
            </meta>
            <text>
               <status value="generated"/>
               <div xmlns="http://www.w3.org/1999/xhtml">
                  <table class="hapiPropertyTable">
                     <tbody>
                        <tr>
                           <td>Identifier</td>
                           <td>333444444</td>
                        </tr>
                        <tr>
                           <td>Name</td>
                           <td/>
                        </tr>
                     </tbody>
                  </table>
               </div>
            </text>
            <identifier>
               <system value="urn:oid:2.16.840.1.113883.4.6"/>
               <value value="333444444"/>
            </identifier>
            <practitionerRole>
               <role>
                  <coding>
                     <system value="urn:oid:2.16.840.1.113883.6.101"/>
                     <code value="246Q00000X"/>
                     <display value="Technician, Pathology"/>
                  </coding>
               </role>
            </practitionerRole>
         </Practitioner>
      </resource>
   </entry>
   <entry>
      <resource>
         <Observation xmlns="http://hl7.org/fhir">
            <id value="61"/>
            <meta>
               <profile value="http://hl7.org/fhir/StructureDefinition/daf-resultobs"/>
            </meta>
            <text>
               <status value="generated"/>
               <div xmlns="http://www.w3.org/1999/xhtml">
                  <table class="hapiPropertyTable">
                     <tbody>
                        <tr>
                           <td>Code</td>
                           <td>
                              <div>Leukocytes</div>
                           </td>
                        </tr>
                        <tr>
                           <td>Date/Period</td>
                           <td>Tue Mar 19 10:30:00 CST 2008 - ?</td>
                        </tr>
                        <tr>
                           <td>Result</td>
                           <td>
                              <div>6.710*9/L</div>
                           </td>
                        </tr>
                        <tr>
                           <td>Interpretation</td>
                           <td/>
                        </tr>
                     </tbody>
                  </table>
               </div>
            </text>
            <identifier>
               <value value="a69b3d60-2ffd-4440-958b-72b3335ff35f"/>
            </identifier>
            <status value="final"/>
            <code>
               <coding>
                  <system value="http://loinc.org"/>
                  <code value="6690-2"/>
                  <display value="Leukocytes"/>
               </coding>
            </code>
            <subject>
               <reference value="Patient/2"/>
            </subject>
            <effectivePeriod>
               <start value="2008-03-19T08:30:00-08:00"/>
            </effectivePeriod>
            <issued value="2008-03-19T08:30:00-08:00"/>
            <performer>
               <reference value="Practitioner/62"/>
            </performer>
            <valueQuantity>
               <value value="6.7"/>
               <unit value="10*9/L"/>
            </valueQuantity>
            <interpretation>
               <coding>
                  <system value="http://hl7.org/fhir/v2/0078"/>
                  <code value="N"/>
               </coding>
            </interpretation>
            <referenceRange>
               <low>
                  <value value="4.3"/>
                  <unit value="10*9/L"/>
               </low>
               <high>
                  <value value="10.8"/>
                  <unit value="10*9/L"/>
               </high>
            </referenceRange>
         </Observation>
      </resource>
   </entry>
   <entry>
      <resource>
         <Practitioner xmlns="http://hl7.org/fhir">
            <id value="62"/>
            <meta>
               <profile value="http://hl7.org/fhir/StructureDefinition/daf-pract"/>
            </meta>
            <text>
               <status value="generated"/>
               <div xmlns="http://www.w3.org/1999/xhtml">
                  <table class="hapiPropertyTable">
                     <tbody>
                        <tr>
                           <td>Identifier</td>
                           <td>333444444</td>
                        </tr>
                        <tr>
                           <td>Name</td>
                           <td/>
                        </tr>
                     </tbody>
                  </table>
               </div>
            </text>
            <identifier>
               <system value="urn:oid:2.16.840.1.113883.4.6"/>
               <value value="333444444"/>
            </identifier>
            <practitionerRole>
               <role>
                  <coding>
                     <system value="urn:oid:2.16.840.1.113883.6.101"/>
                     <code value="246Q00000X"/>
                     <display value="Technician, Pathology"/>
                  </coding>
               </role>
            </practitionerRole>
         </Practitioner>
      </resource>
   </entry>
   <entry>
      <resource>
         <Observation xmlns="http://hl7.org/fhir">
            <id value="63"/>
            <meta>
               <profile value="http://hl7.org/fhir/StructureDefinition/daf-resultobs"/>
            </meta>
            <text>
               <status value="generated"/>
               <div xmlns="http://www.w3.org/1999/xhtml">
                  <table class="hapiPropertyTable">
                     <tbody>
                        <tr>
                           <td>Code</td>
                           <td>
                              <div>Erythrocytes</div>
                           </td>
                        </tr>
                        <tr>
                           <td>Date/Period</td>
                           <td>Tue Mar 19 10:30:00 CST 2008 - ?</td>
                        </tr>
                        <tr>
                           <td>Result</td>
                           <td>
                              <div>4.2110*12/L</div>
                           </td>
                        </tr>
                        <tr>
                           <td>Interpretation</td>
                           <td/>
                        </tr>
                     </tbody>
                  </table>
               </div>
            </text>
            <identifier>
               <value value="bccd6fc9-0c7f-455e-8616-923ed0d04d09"/>
            </identifier>
            <status value="final"/>
            <code>
               <coding>
                  <system value="http://loinc.org"/>
                  <code value="789-8"/>
                  <display value="Erythrocytes"/>
               </coding>
            </code>
            <subject>
               <reference value="Patient/2"/>
            </subject>
            <effectivePeriod>
               <start value="2008-03-19T08:30:00-08:00"/>
            </effectivePeriod>
            <issued value="2008-03-19T08:30:00-08:00"/>
            <performer>
               <reference value="Practitioner/64"/>
            </performer>
            <valueQuantity>
               <value value="4.21"/>
               <unit value="10*12/L"/>
            </valueQuantity>
            <interpretation>
               <coding>
                  <system value="http://hl7.org/fhir/v2/0078"/>
                  <code value="N"/>
               </coding>
            </interpretation>
            <referenceRange>
               <low>
                  <value value="3.90"/>
                  <unit value="10*12/L"/>
               </low>
               <high>
                  <value value="5.03"/>
                  <unit value="10*12/L"/>
               </high>
            </referenceRange>
         </Observation>
      </resource>
   </entry>
   <entry>
      <resource>
         <Practitioner xmlns="http://hl7.org/fhir">
            <id value="64"/>
            <meta>
               <profile value="http://hl7.org/fhir/StructureDefinition/daf-pract"/>
            </meta>
            <text>
               <status value="generated"/>
               <div xmlns="http://www.w3.org/1999/xhtml">
                  <table class="hapiPropertyTable">
                     <tbody>
                        <tr>
                           <td>Identifier</td>
                           <td>333444444</td>
                        </tr>
                        <tr>
                           <td>Name</td>
                           <td/>
                        </tr>
                     </tbody>
                  </table>
               </div>
            </text>
            <identifier>
               <system value="urn:oid:2.16.840.1.113883.4.6"/>
               <value value="333444444"/>
            </identifier>
            <practitionerRole>
               <role>
                  <coding>
                     <system value="urn:oid:2.16.840.1.113883.6.101"/>
                     <code value="246Q00000X"/>
                     <display value="Technician, Pathology"/>
                  </coding>
               </role>
            </practitionerRole>
         </Practitioner>
      </resource>
   </entry>
   <entry>
      <resource>
         <Observation xmlns="http://hl7.org/fhir">
            <id value="65"/>
            <meta>
               <profile value="http://hl7.org/fhir/StructureDefinition/daf-resultobs"/>
            </meta>
            <text>
               <status value="generated"/>
               <div xmlns="http://www.w3.org/1999/xhtml">
                  <table class="hapiPropertyTable">
                     <tbody>
                        <tr>
                           <td>Code</td>
                           <td>
                              <div>Platelets</div>
                           </td>
                        </tr>
                        <tr>
                           <td>Date/Period</td>
                           <td>Tue Mar 19 10:30:00 CST 2008 - ?</td>
                        </tr>
                        <tr>
                           <td>Result</td>
                           <td>
                              <div>12310*9/L</div>
                           </td>
                        </tr>
                        <tr>
                           <td>Interpretation</td>
                           <td>
                              <div>Low</div>
                           </td>
                        </tr>
                     </tbody>
                  </table>
               </div>
            </text>
            <identifier>
               <value value="ef5c1c58-4665-4556-a8e8-6e720d82f572"/>
            </identifier>
            <status value="final"/>
            <code>
               <coding>
                  <system value="http://loinc.org"/>
                  <code value="777-3"/>
                  <display value="Platelets"/>
               </coding>
            </code>
            <subject>
               <reference value="Patient/2"/>
            </subject>
            <effectivePeriod>
               <start value="2008-03-19T08:30:00-08:00"/>
            </effectivePeriod>
            <issued value="2008-03-19T08:30:00-08:00"/>
            <performer>
               <reference value="Practitioner/66"/>
            </performer>
            <valueQuantity>
               <value value="123"/>
               <unit value="10*9/L"/>
            </valueQuantity>
            <interpretation>
               <coding>
                  <system value="http://hl7.org/fhir/v2/0078"/>
                  <code value="L"/>
                  <display value="Low"/>
               </coding>
            </interpretation>
            <referenceRange>
               <low>
                  <value value="150"/>
                  <unit value="10*9/L"/>
               </low>
               <high>
                  <value value="350"/>
                  <unit value="10*9/L"/>
               </high>
            </referenceRange>
         </Observation>
      </resource>
   </entry>
   <entry>
      <resource>
         <Practitioner xmlns="http://hl7.org/fhir">
            <id value="66"/>
            <meta>
               <profile value="http://hl7.org/fhir/StructureDefinition/daf-pract"/>
            </meta>
            <text>
               <status value="generated"/>
               <div xmlns="http://www.w3.org/1999/xhtml">
                  <table class="hapiPropertyTable">
                     <tbody>
                        <tr>
                           <td>Identifier</td>
                           <td>333444444</td>
                        </tr>
                        <tr>
                           <td>Name</td>
                           <td/>
                        </tr>
                     </tbody>
                  </table>
               </div>
            </text>
            <identifier>
               <system value="urn:oid:2.16.840.1.113883.4.6"/>
               <value value="333444444"/>
            </identifier>
            <practitionerRole>
               <role>
                  <coding>
                     <system value="urn:oid:2.16.840.1.113883.6.101"/>
                     <code value="246Q00000X"/>
                     <display value="Technician, Pathology"/>
                  </coding>
               </role>
            </practitionerRole>
         </Practitioner>
      </resource>
   </entry>
   <entry>
      <resource>
         <Immunization xmlns="http://hl7.org/fhir">
            <id value="67"/>
            <meta>
               <profile value="http://hl7.org/fhir/StructureDefinition/daf-immunization"/>
            </meta>
            <text>
               <status value="generated"/>
               <div xmlns="http://www.w3.org/1999/xhtml">
                  <table class="hapiPropertyTable">
                     <tbody>
                        <tr>
                           <td>Vaccine Code</td>
                           <td>
                              <div>Influenza virus vaccine</div>
                           </td>
                        </tr>
                        <tr>
                           <td>Date (Vaccine Administered)</td>
                           <td>Fri Dec 15 00:00:00 CST 1998</td>
                        </tr>
                        <tr>
                           <td>Not Given</td>
                           <td>True</td>
                        </tr>
                        <tr>
                           <td>Route</td>
                           <td>
                              <div>Intramuscular injection</div>
                           </td>
                        </tr>
                        <tr>
                           <td>Dose</td>
                           <td>
                              <div>50ug</div>
                           </td>
                        </tr>
                     </tbody>
                  </table>
               </div>
            </text>
            <identifier>
               <value value="e6f1ba43-c0ed-4b9b-9f12-f435d8ad8f92"/>
            </identifier>
            <status value="completed"/>
            <date value="1998-12-15"/>
            <vaccineCode>
               <coding>
                  <system value="urn:oid:2.16.840.1.113883.6.59"/>
                  <code value="88"/>
                  <display value="Influenza virus vaccine"/>
               </coding>
            </vaccineCode>
            <patient>
               <reference value="Patient/2"/>
            </patient>
            <wasNotGiven value="true"/>
            <reported value="false"/>
            <performer>
               <reference value="Practitioner/69"/>
            </performer>
            <manufacturer>
               <reference value="Organization/68"/>
            </manufacturer>
            <lotNumber value="1"/>
            <route>
               <coding>
                  <system value="urn:oid:2.16.840.1.113883.3.26.1.1"/>
                  <code value="C28161"/>
                  <display value="Intramuscular injection"/>
               </coding>
            </route>
            <doseQuantity>
               <value value="50"/>
               <unit value="ug"/>
            </doseQuantity>
         </Immunization>
      </resource>
   </entry>
   <entry>
      <resource>
         <Organization xmlns="http://hl7.org/fhir">
            <id value="68"/>
            <meta>
               <profile value="http://hl7.org/fhir/StructureDefinition/daf-organization"/>
            </meta>
            <text>
               <status value="generated"/>
               <div xmlns="http://www.w3.org/1999/xhtml">
                  <table class="hapiPropertyTable">
                     <tbody>
                        <tr>
                           <td>Name</td>
                           <td>Health LS - Immuno Inc.</td>
                        </tr>
                     </tbody>
                  </table>
               </div>
            </text>
            <name value="Health LS - Immuno Inc."/>
         </Organization>
      </resource>
   </entry>
   <entry>
      <resource>
         <Practitioner xmlns="http://hl7.org/fhir">
            <id value="69"/>
            <meta>
               <profile value="http://hl7.org/fhir/StructureDefinition/daf-pract"/>
            </meta>
            <text>
               <status value="generated"/>
               <div xmlns="http://www.w3.org/1999/xhtml">
                  <table class="hapiPropertyTable">
                     <tbody>
                        <tr>
                           <td>Identifier</td>
                           <td>2981824</td>
                        </tr>
                        <tr>
                           <td>Name</td>
                           <td>Harold 
                              <b>HIPPOCRATES </b>
                           </td>
                        </tr>
                     </tbody>
                  </table>
               </div>
            </text>
            <identifier>
               <system value="urn:oid:2.16.840.1.113883.19.5.9999.456"/>
               <value value="2981824"/>
            </identifier>
            <name>
               <family value="Hippocrates"/>
               <given value="Harold"/>
            </name>
            <telecom>
               <system value="phone"/>
               <value value=" +1(555)555-1030"/>
               <use value="work"/>
            </telecom>
            <address>
               <line value="1007 Health Drive"/>
               <city value="Portland"/>
               <state value="OR"/>
               <postalCode value="99123"/>
               <country value="US"/>
            </address>
            <practitionerRole>
               <managingOrganization>
                  <reference value="Organization/70"/>
               </managingOrganization>
            </practitionerRole>
         </Practitioner>
      </resource>
   </entry>
   <entry>
      <resource>
         <Organization xmlns="http://hl7.org/fhir">
            <id value="70"/>
            <meta>
               <profile value="http://hl7.org/fhir/StructureDefinition/daf-organization"/>
            </meta>
            <text>
               <status value="generated"/>
               <div xmlns="http://www.w3.org/1999/xhtml">
                  <table class="hapiPropertyTable">
                     <tbody>
                        <tr>
                           <td>Identifier</td>
                           <td>2.16.840.1.113883.19.5.9999.1394</td>
                        </tr>
                        <tr>
                           <td>Name</td>
                           <td>Good Health Clinic</td>
                        </tr>
                     </tbody>
                  </table>
               </div>
            </text>
            <identifier>
               <value value="2.16.840.1.113883.19.5.9999.1394"/>
            </identifier>
            <name value="Good Health Clinic"/>
            <telecom>
               <system value="phone"/>
               <value value=" +1(555)555-1030"/>
               <use value="work"/>
            </telecom>
            <address>
               <line value="1007 Health Drive"/>
               <city value="Portland"/>
               <state value="OR"/>
               <postalCode value="99123"/>
               <country value="US"/>
            </address>
         </Organization>
      </resource>
   </entry>
   <entry>
      <resource>
         <Immunization xmlns="http://hl7.org/fhir">
            <id value="71"/>
            <meta>
               <profile value="http://hl7.org/fhir/StructureDefinition/daf-immunization"/>
            </meta>
            <text>
               <status value="generated"/>
               <div xmlns="http://www.w3.org/1999/xhtml">
                  <table class="hapiPropertyTable">
                     <tbody>
                        <tr>
                           <td>Vaccine Code</td>
                           <td>
                              <div>Hepatitis B vaccine</div>
                           </td>
                        </tr>
                        <tr>
                           <td>Date (Vaccine Administered)</td>
                           <td>Fri Aug 01 00:00:00 CST 2013</td>
                        </tr>
                        <tr>
                           <td>Route</td>
                           <td>
                              <div>Intramuscular injection</div>
                           </td>
                        </tr>
                        <tr>
                           <td>Dose</td>
                           <td>
                              <div/>
                           </td>
                        </tr>
                     </tbody>
                  </table>
               </div>
            </text>
            <identifier>
               <value value="de10790f-1496-4719-8fe6-f1b87b6219f7"/>
            </identifier>
            <status value="completed"/>
            <date value="2013-08-01"/>
            <vaccineCode>
               <coding>
                  <system value="urn:oid:2.16.840.1.113883.6.59"/>
                  <code value="45"/>
                  <display value="Hepatitis B vaccine"/>
               </coding>
            </vaccineCode>
            <patient>
               <reference value="Patient/2"/>
            </patient>
            <wasNotGiven value="false"/>
            <reported value="false"/>
            <performer>
               <reference value="Practitioner/72"/>
            </performer>
            <lotNumber value="1"/>
            <route>
               <coding>
                  <system value="urn:oid:2.16.840.1.113883.3.26.1.1"/>
                  <code value="C28161"/>
                  <display value="Intramuscular injection"/>
               </coding>
            </route>
            <explanation>
               <reason>
                  <coding>
                     <system value="http://snomed.info/sct"/>
                     <code value="195967001"/>
                     <display value="Asthma"/>
                  </coding>
               </reason>
            </explanation>
         </Immunization>
      </resource>
   </entry>
   <entry>
      <resource>
         <Practitioner xmlns="http://hl7.org/fhir">
            <id value="72"/>
            <meta>
               <profile value="http://hl7.org/fhir/StructureDefinition/daf-pract"/>
            </meta>
            <text>
               <status value="generated"/>
               <div xmlns="http://www.w3.org/1999/xhtml">
                  <table class="hapiPropertyTable">
                     <tbody>
                        <tr>
                           <td>Identifier</td>
                           <td>2981824</td>
                        </tr>
                        <tr>
                           <td>Name</td>
                           <td>Harold 
                              <b>HIPPOCRATES </b>
                           </td>
                        </tr>
                     </tbody>
                  </table>
               </div>
            </text>
            <identifier>
               <system value="urn:oid:2.16.840.1.113883.19.5.9999.456"/>
               <value value="2981824"/>
            </identifier>
            <name>
               <family value="Hippocrates"/>
               <given value="Harold"/>
            </name>
            <telecom>
               <system value="phone"/>
               <value value=" +1(555)555-1030"/>
               <use value="work"/>
            </telecom>
            <address>
               <line value="1007 Health Drive"/>
               <city value="Portland"/>
               <state value="OR"/>
               <postalCode value="99123"/>
               <country value="US"/>
            </address>
            <practitionerRole>
               <managingOrganization>
                  <reference value="Organization/73"/>
               </managingOrganization>
            </practitionerRole>
         </Practitioner>
      </resource>
   </entry>
   <entry>
      <resource>
         <Organization xmlns="http://hl7.org/fhir">
            <id value="73"/>
            <meta>
               <profile value="http://hl7.org/fhir/StructureDefinition/daf-organization"/>
            </meta>
            <text>
               <status value="generated"/>
               <div xmlns="http://www.w3.org/1999/xhtml">
                  <table class="hapiPropertyTable">
                     <tbody>
                        <tr>
                           <td>Identifier</td>
                           <td>2.16.840.1.113883.19.5.9999.1394</td>
                        </tr>
                        <tr>
                           <td>Name</td>
                           <td>Good Health Clinic</td>
                        </tr>
                     </tbody>
                  </table>
               </div>
            </text>
            <identifier>
               <value value="2.16.840.1.113883.19.5.9999.1394"/>
            </identifier>
            <name value="Good Health Clinic"/>
            <telecom>
               <system value="phone"/>
               <value value=" +1(555)555-1030"/>
               <use value="work"/>
            </telecom>
            <address>
               <line value="1007 Health Drive"/>
               <city value="Portland"/>
               <state value="OR"/>
               <postalCode value="99123"/>
               <country value="US"/>
            </address>
         </Organization>
      </resource>
   </entry>
   <entry>
      <resource>
         <Immunization xmlns="http://hl7.org/fhir">
            <id value="74"/>
            <meta>
               <profile value="http://hl7.org/fhir/StructureDefinition/daf-immunization"/>
            </meta>
            <text>
               <status value="generated"/>
               <div xmlns="http://www.w3.org/1999/xhtml">
                  <table class="hapiPropertyTable">
                     <tbody>
                        <tr>
                           <td>Vaccine Code</td>
                           <td>
                              <div>Influenza virus vaccine</div>
                           </td>
                        </tr>
                        <tr>
                           <td>Date (Vaccine Administered)</td>
                           <td>Wed Nov 30 00:00:00 CST 1999</td>
                        </tr>
                        <tr>
                           <td>Route</td>
                           <td>
                              <div>Intramuscular injection</div>
                           </td>
                        </tr>
                        <tr>
                           <td>Dose</td>
                           <td>
                              <div>50ug</div>
                           </td>
                        </tr>
                     </tbody>
                  </table>
               </div>
            </text>
            <identifier>
               <value value="e6f1ba43-c0ed-4b9b-9f12-f435d8ad8f92"/>
            </identifier>
            <status value="completed"/>
            <date value="1999-11"/>
            <vaccineCode>
               <coding>
                  <system value="urn:oid:2.16.840.1.113883.6.59"/>
                  <code value="88"/>
                  <display value="Influenza virus vaccine"/>
               </coding>
            </vaccineCode>
            <patient>
               <reference value="Patient/2"/>
            </patient>
            <wasNotGiven value="false"/>
            <reported value="false"/>
            <performer>
               <reference value="Practitioner/76"/>
            </performer>
            <manufacturer>
               <reference value="Organization/75"/>
            </manufacturer>
            <lotNumber value="1"/>
            <route>
               <coding>
                  <system value="urn:oid:2.16.840.1.113883.3.26.1.1"/>
                  <code value="C28161"/>
                  <display value="Intramuscular injection"/>
               </coding>
            </route>
            <doseQuantity>
               <value value="50"/>
               <unit value="ug"/>
            </doseQuantity>
         </Immunization>
      </resource>
   </entry>
   <entry>
      <resource>
         <Organization xmlns="http://hl7.org/fhir">
            <id value="75"/>
            <meta>
               <profile value="http://hl7.org/fhir/StructureDefinition/daf-organization"/>
            </meta>
            <text>
               <status value="generated"/>
               <div xmlns="http://www.w3.org/1999/xhtml">
                  <table class="hapiPropertyTable">
                     <tbody>
                        <tr>
                           <td>Name</td>
                           <td>Health LS - Immuno Inc.</td>
                        </tr>
                     </tbody>
                  </table>
               </div>
            </text>
            <name value="Health LS - Immuno Inc."/>
         </Organization>
      </resource>
   </entry>
   <entry>
      <resource>
         <Practitioner xmlns="http://hl7.org/fhir">
            <id value="76"/>
            <meta>
               <profile value="http://hl7.org/fhir/StructureDefinition/daf-pract"/>
            </meta>
            <text>
               <status value="generated"/>
               <div xmlns="http://www.w3.org/1999/xhtml">
                  <table class="hapiPropertyTable">
                     <tbody>
                        <tr>
                           <td>Identifier</td>
                           <td>2981824</td>
                        </tr>
                        <tr>
                           <td>Name</td>
                           <td>Harold 
                              <b>HIPPOCRATES </b>
                           </td>
                        </tr>
                     </tbody>
                  </table>
               </div>
            </text>
            <identifier>
               <system value="urn:oid:2.16.840.1.113883.19.5.9999.456"/>
               <value value="2981824"/>
            </identifier>
            <name>
               <family value="Hippocrates"/>
               <given value="Harold"/>
            </name>
            <telecom>
               <system value="phone"/>
               <value value=" +1(555)555-1030"/>
               <use value="work"/>
            </telecom>
            <address>
               <line value="1007 Health Drive"/>
               <city value="Portland"/>
               <state value="OR"/>
               <postalCode value="99123"/>
               <country value="US"/>
            </address>
            <practitionerRole>
               <managingOrganization>
                  <reference value="Organization/77"/>
               </managingOrganization>
            </practitionerRole>
         </Practitioner>
      </resource>
   </entry>
   <entry>
      <resource>
         <Organization xmlns="http://hl7.org/fhir">
            <id value="77"/>
            <meta>
               <profile value="http://hl7.org/fhir/StructureDefinition/daf-organization"/>
            </meta>
            <text>
               <status value="generated"/>
               <div xmlns="http://www.w3.org/1999/xhtml">
                  <table class="hapiPropertyTable">
                     <tbody>
                        <tr>
                           <td>Identifier</td>
                           <td>2.16.840.1.113883.19.5.9999.1394</td>
                        </tr>
                        <tr>
                           <td>Name</td>
                           <td>Good Health Clinic</td>
                        </tr>
                     </tbody>
                  </table>
               </div>
            </text>
            <identifier>
               <value value="2.16.840.1.113883.19.5.9999.1394"/>
            </identifier>
            <name value="Good Health Clinic"/>
            <telecom>
               <system value="phone"/>
               <value value=" +1(555)555-1030"/>
               <use value="work"/>
            </telecom>
            <address>
               <line value="1007 Health Drive"/>
               <city value="Portland"/>
               <state value="OR"/>
               <postalCode value="99123"/>
               <country value="US"/>
            </address>
         </Organization>
      </resource>
   </entry>
   <entry>
      <resource>
         <Immunization xmlns="http://hl7.org/fhir">
            <id value="78"/>
            <meta>
               <profile value="http://hl7.org/fhir/StructureDefinition/daf-immunization"/>
            </meta>
            <text>
               <status value="generated"/>
               <div xmlns="http://www.w3.org/1999/xhtml">
                  <table class="hapiPropertyTable">
                     <tbody>
                        <tr>
                           <td>Vaccine Code</td>
                           <td>
                              <div>Pneumococcal polysaccharide vaccine</div>
                           </td>
                        </tr>
                        <tr>
                           <td>Date (Vaccine Administered)</td>
                           <td>Fri Dec 15 00:00:00 CST 1998</td>
                        </tr>
                        <tr>
                           <td>Route</td>
                           <td>
                              <div>Intramuscular injection</div>
                           </td>
                        </tr>
                        <tr>
                           <td>Dose</td>
                           <td>
                              <div>50ug</div>
                           </td>
                        </tr>
                     </tbody>
                  </table>
               </div>
            </text>
            <identifier>
               <value value="e6f1ba43-c0ed-4b9b-9f12-f435d8ad8f92"/>
            </identifier>
            <status value="completed"/>
            <date value="1998-12-15"/>
            <vaccineCode>
               <coding>
                  <system value="urn:oid:2.16.840.1.113883.6.59"/>
                  <code value="33"/>
                  <display value="Pneumococcal polysaccharide vaccine"/>
               </coding>
            </vaccineCode>
            <patient>
               <reference value="Patient/2"/>
            </patient>
            <wasNotGiven value="false"/>
            <reported value="false"/>
            <performer>
               <reference value="Practitioner/80"/>
            </performer>
            <manufacturer>
               <reference value="Organization/79"/>
            </manufacturer>
            <lotNumber value="1"/>
            <route>
               <coding>
                  <system value="urn:oid:2.16.840.1.113883.3.26.1.1"/>
                  <code value="C28161"/>
                  <display value="Intramuscular injection"/>
               </coding>
            </route>
            <doseQuantity>
               <value value="50"/>
               <unit value="ug"/>
            </doseQuantity>
            <reaction>
               <date value="1998-12-15T08:05:00-08:00"/>
               <detail>
                  <reference value="Observation/82"/>
               </detail>
            </reaction>
         </Immunization>
      </resource>
   </entry>
   <entry>
      <resource>
         <Organization xmlns="http://hl7.org/fhir">
            <id value="79"/>
            <meta>
               <profile value="http://hl7.org/fhir/StructureDefinition/daf-organization"/>
            </meta>
            <text>
               <status value="generated"/>
               <div xmlns="http://www.w3.org/1999/xhtml">
                  <table class="hapiPropertyTable">
                     <tbody>
                        <tr>
                           <td>Name</td>
                           <td>Health LS - Immuno Inc.</td>
                        </tr>
                     </tbody>
                  </table>
               </div>
            </text>
            <name value="Health LS - Immuno Inc."/>
         </Organization>
      </resource>
   </entry>
   <entry>
      <resource>
         <Practitioner xmlns="http://hl7.org/fhir">
            <id value="80"/>
            <meta>
               <profile value="http://hl7.org/fhir/StructureDefinition/daf-pract"/>
            </meta>
            <text>
               <status value="generated"/>
               <div xmlns="http://www.w3.org/1999/xhtml">
                  <table class="hapiPropertyTable">
                     <tbody>
                        <tr>
                           <td>Identifier</td>
                           <td>2981824</td>
                        </tr>
                        <tr>
                           <td>Name</td>
                           <td>Harold 
                              <b>HIPPOCRATES </b>
                           </td>
                        </tr>
                     </tbody>
                  </table>
               </div>
            </text>
            <identifier>
               <system value="urn:oid:2.16.840.1.113883.19.5.9999.456"/>
               <value value="2981824"/>
            </identifier>
            <name>
               <family value="Hippocrates"/>
               <given value="Harold"/>
            </name>
            <telecom>
               <system value="phone"/>
               <value value=" +1(555)555-1030"/>
               <use value="work"/>
            </telecom>
            <address>
               <line value="1007 Health Drive"/>
               <city value="Portland"/>
               <state value="OR"/>
               <postalCode value="99123"/>
               <country value="US"/>
            </address>
            <practitionerRole>
               <managingOrganization>
                  <reference value="Organization/81"/>
               </managingOrganization>
            </practitionerRole>
         </Practitioner>
      </resource>
   </entry>
   <entry>
      <resource>
         <Organization xmlns="http://hl7.org/fhir">
            <id value="81"/>
            <meta>
               <profile value="http://hl7.org/fhir/StructureDefinition/daf-organization"/>
            </meta>
            <text>
               <status value="generated"/>
               <div xmlns="http://www.w3.org/1999/xhtml">
                  <table class="hapiPropertyTable">
                     <tbody>
                        <tr>
                           <td>Identifier</td>
                           <td>2.16.840.1.113883.19.5.9999.1394</td>
                        </tr>
                        <tr>
                           <td>Name</td>
                           <td>Good Health Clinic</td>
                        </tr>
                     </tbody>
                  </table>
               </div>
            </text>
            <identifier>
               <value value="2.16.840.1.113883.19.5.9999.1394"/>
            </identifier>
            <name value="Good Health Clinic"/>
            <telecom>
               <system value="phone"/>
               <value value=" +1(555)555-1030"/>
               <use value="work"/>
            </telecom>
            <address>
               <line value="1007 Health Drive"/>
               <city value="Portland"/>
               <state value="OR"/>
               <postalCode value="99123"/>
               <country value="US"/>
            </address>
         </Organization>
      </resource>
   </entry>
   <entry>
      <resource>
         <Observation xmlns="http://hl7.org/fhir">
            <id value="82"/>
            <text>
               <status value="generated"/>
               <div xmlns="http://www.w3.org/1999/xhtml">
                  <table class="hapiPropertyTable">
                     <tbody>
                        <tr>
                           <td>Code</td>
                           <td/>
                        </tr>
                        <tr>
                           <td>Date/Period</td>
                           <td>Fri Dec 15 10:05:00 CST 1998 - Fri Dec 15 14:05:00 CST 1998</td>
                        </tr>
                        <tr>
                           <td>Result</td>
                           <td>
                              <div>Nausea</div>
                           </td>
                        </tr>
                     </tbody>
                  </table>
               </div>
            </text>
            <identifier>
               <value value="4adc1020-7b14-11db-9fe1-0800200c9a64"/>
            </identifier>
            <status value="final"/>
            <code>
               <coding>
                  <system value="urn:oid:2.16.840.1.113883.5.4"/>
                  <code value="ASSERTION"/>
               </coding>
            </code>
            <subject>
               <reference value="Patient/2"/>
            </subject>
            <effectivePeriod>
               <start value="1998-12-15T08:05:00-08:00"/>
               <end value="1998-12-15T12:05:00-08:00"/>
            </effectivePeriod>
            <valueCodeableConcept>
               <coding>
                  <system value="http://snomed.info/sct"/>
                  <code value="422587007"/>
                  <display value="Nausea"/>
               </coding>
            </valueCodeableConcept>
         </Observation>
      </resource>
   </entry>
   <entry>
      <resource>
         <Immunization xmlns="http://hl7.org/fhir">
            <id value="83"/>
            <meta>
               <profile value="http://hl7.org/fhir/StructureDefinition/daf-immunization"/>
            </meta>
            <text>
               <status value="generated"/>
               <div xmlns="http://www.w3.org/1999/xhtml">
                  <table class="hapiPropertyTable">
                     <tbody>
                        <tr>
                           <td>Vaccine Code</td>
                           <td>
                              <div>Tetanus and diphtheria toxoids - preservative free</div>
                           </td>
                        </tr>
                        <tr>
                           <td>Date (Vaccine Administered)</td>
                           <td>Fri Dec 15 00:00:00 CST 1998</td>
                        </tr>
                        <tr>
                           <td>Not Given</td>
                           <td>True</td>
                        </tr>
                        <tr>
                           <td>Route</td>
                           <td>
                              <div>Intramuscular injection</div>
                           </td>
                        </tr>
                        <tr>
                           <td>Dose</td>
                           <td>
                              <div>50ug</div>
                           </td>
                        </tr>
                     </tbody>
                  </table>
               </div>
            </text>
            <identifier>
               <value value="e6f1ba43-c0ed-4b9b-9f12-f435d8ad8f92"/>
            </identifier>
            <status value="completed"/>
            <date value="1998-12-15"/>
            <vaccineCode>
               <coding>
                  <system value="urn:oid:2.16.840.1.113883.6.59"/>
                  <code value="103"/>
                  <display value="Tetanus and diphtheria toxoids - preservative free"/>
               </coding>
            </vaccineCode>
            <patient>
               <reference value="Patient/2"/>
            </patient>
            <wasNotGiven value="true"/>
            <reported value="false"/>
            <performer>
               <reference value="Practitioner/85"/>
            </performer>
            <manufacturer>
               <reference value="Organization/84"/>
            </manufacturer>
            <lotNumber value="1"/>
            <route>
               <coding>
                  <system value="urn:oid:2.16.840.1.113883.3.26.1.1"/>
                  <code value="C28161"/>
                  <display value="Intramuscular injection"/>
               </coding>
            </route>
            <doseQuantity>
               <value value="50"/>
               <unit value="ug"/>
            </doseQuantity>
            <explanation>
               <reasonNotGiven>
                  <coding>
                     <system value="urn:oid:2.16.840.1.113883.5.8"/>
                     <code value="PATOBJ"/>
                     <display value="Patient Objection"/>
                  </coding>
               </reasonNotGiven>
            </explanation>
         </Immunization>
      </resource>
   </entry>
   <entry>
      <resource>
         <Organization xmlns="http://hl7.org/fhir">
            <id value="84"/>
            <meta>
               <profile value="http://hl7.org/fhir/StructureDefinition/daf-organization"/>
            </meta>
            <text>
               <status value="generated"/>
               <div xmlns="http://www.w3.org/1999/xhtml">
                  <table class="hapiPropertyTable">
                     <tbody>
                        <tr>
                           <td>Name</td>
                           <td>Health LS - Immuno Inc.</td>
                        </tr>
                     </tbody>
                  </table>
               </div>
            </text>
            <name value="Health LS - Immuno Inc."/>
         </Organization>
      </resource>
   </entry>
   <entry>
      <resource>
         <Practitioner xmlns="http://hl7.org/fhir">
            <id value="85"/>
            <meta>
               <profile value="http://hl7.org/fhir/StructureDefinition/daf-pract"/>
            </meta>
            <text>
               <status value="generated"/>
               <div xmlns="http://www.w3.org/1999/xhtml">
                  <table class="hapiPropertyTable">
                     <tbody>
                        <tr>
                           <td>Identifier</td>
                           <td>2981824</td>
                        </tr>
                        <tr>
                           <td>Name</td>
                           <td>Harold 
                              <b>HIPPOCRATES </b>
                           </td>
                        </tr>
                     </tbody>
                  </table>
               </div>
            </text>
            <identifier>
               <system value="urn:oid:2.16.840.1.113883.19.5.9999.456"/>
               <value value="2981824"/>
            </identifier>
            <name>
               <family value="Hippocrates"/>
               <given value="Harold"/>
            </name>
            <telecom>
               <system value="phone"/>
               <value value=" +1(555)555-1030"/>
               <use value="work"/>
            </telecom>
            <address>
               <line value="1007 Health Drive"/>
               <city value="Portland"/>
               <state value="OR"/>
               <postalCode value="99123"/>
               <country value="US"/>
            </address>
            <practitionerRole>
               <managingOrganization>
                  <reference value="Organization/86"/>
               </managingOrganization>
            </practitionerRole>
         </Practitioner>
      </resource>
   </entry>
   <entry>
      <resource>
         <Organization xmlns="http://hl7.org/fhir">
            <id value="86"/>
            <meta>
               <profile value="http://hl7.org/fhir/StructureDefinition/daf-organization"/>
            </meta>
            <text>
               <status value="generated"/>
               <div xmlns="http://www.w3.org/1999/xhtml">
                  <table class="hapiPropertyTable">
                     <tbody>
                        <tr>
                           <td>Identifier</td>
                           <td>2.16.840.1.113883.19.5.9999.1394</td>
                        </tr>
                        <tr>
                           <td>Name</td>
                           <td>Good Health Clinic</td>
                        </tr>
                     </tbody>
                  </table>
               </div>
            </text>
            <identifier>
               <value value="2.16.840.1.113883.19.5.9999.1394"/>
            </identifier>
            <name value="Good Health Clinic"/>
            <telecom>
               <system value="phone"/>
               <value value=" +1(555)555-1030"/>
               <use value="work"/>
            </telecom>
         </Organization>
      </resource>
   </entry>
   <entry>
      <resource>
         <Procedure xmlns="http://hl7.org/fhir">
            <id value="87"/>
            <meta>
               <profile value="http://hl7.org/fhir/StructureDefinition/daf-procedure"/>
            </meta>
            <text>
               <status value="generated"/>
               <div xmlns="http://www.w3.org/1999/xhtml">
                  <table class="hapiPropertyTable">
                     <tbody>
                        <tr>
                           <td>Type</td>
                           <td>
                              <div>Colonoscopy</div>
                           </td>
                        </tr>
                        <tr>
                           <td>Date/Period</td>
                           <td>Tue May 12 00:00:00 CST 2012 - ?</td>
                        </tr>
                     </tbody>
                  </table>
               </div>
            </text>
            <identifier>
               <value value="d68b7e32-7810-4f5b-9cc2-acd54b0fd85d"/>
            </identifier>
            <subject>
               <reference value="Patient/2"/>
            </subject>
            <status value="completed"/>
            <code>
               <coding>
                  <system value="http://snomed.info/sct"/>
                  <code value="73761001"/>
                  <display value="Colonoscopy"/>
               </coding>
            </code>
            <bodySite>
               <coding>
                  <system value="urn:oid:2.16.840.1.113883.3.88.12.3221.8.9"/>
                  <code value="appropriate_code"/>
                  <display value="colon"/>
               </coding>
            </bodySite>
            <performer>
               <actor>
                  <reference value="Practitioner/88"/>
               </actor>
            </performer>
            <performedPeriod>
               <start value="2012-05-12"/>
            </performedPeriod>
            <encounter>
               <reference value="Encounter/90"/>
            </encounter>
         </Procedure>
      </resource>
   </entry>
   <entry>
      <resource>
         <Practitioner xmlns="http://hl7.org/fhir">
            <id value="88"/>
            <meta>
               <profile value="http://hl7.org/fhir/StructureDefinition/daf-pract"/>
            </meta>
            <text>
               <status value="generated"/>
               <div xmlns="http://www.w3.org/1999/xhtml">
                  <table class="hapiPropertyTable">
                     <tbody>
                        <tr>
                           <td>Identifier</td>
                           <td>2981823</td>
                        </tr>
                        <tr>
                           <td>Name</td>
                           <td/>
                        </tr>
                     </tbody>
                  </table>
               </div>
            </text>
            <identifier>
               <system value="urn:oid:2.16.840.1.113883.19.5.9999.456"/>
               <value value="2981823"/>
            </identifier>
            <telecom>
               <system value="phone"/>
               <value value="+1(555)555-5000"/>
               <use value="work"/>
            </telecom>
            <address>
               <line value="1001 Village Avenue"/>
               <city value="Portland"/>
               <state value="OR"/>
               <postalCode value="99123"/>
               <country value="US"/>
            </address>
            <practitionerRole>
               <managingOrganization>
                  <reference value="Organization/89"/>
               </managingOrganization>
            </practitionerRole>
         </Practitioner>
      </resource>
   </entry>
   <entry>
      <resource>
         <Organization xmlns="http://hl7.org/fhir">
            <id value="89"/>
            <meta>
               <profile value="http://hl7.org/fhir/StructureDefinition/daf-organization"/>
            </meta>
            <text>
               <status value="generated"/>
               <div xmlns="http://www.w3.org/1999/xhtml">
                  <table class="hapiPropertyTable">
                     <tbody>
                        <tr>
                           <td>Identifier</td>
                           <td>2.16.840.1.113883.19.5.9999.1393</td>
                        </tr>
                        <tr>
                           <td>Name</td>
                           <td>Community Health and Hospitals</td>
                        </tr>
                     </tbody>
                  </table>
               </div>
            </text>
            <identifier>
               <value value="2.16.840.1.113883.19.5.9999.1393"/>
            </identifier>
            <name value="Community Health and Hospitals"/>
            <telecom>
               <system value="phone"/>
               <value value="+1(555)555-5000"/>
               <use value="work"/>
            </telecom>
            <address>
               <line value="1001 Village Avenue"/>
               <city value="Portland"/>
               <state value="OR"/>
               <postalCode value="99123"/>
               <country value="US"/>
            </address>
         </Organization>
      </resource>
   </entry>
   <entry>
      <resource>
         <Encounter xmlns="http://hl7.org/fhir">
            <id value="90"/>
            <meta>
               <profile value="http://hl7.org/fhir/StructureDefinition/daf-encounter"/>
            </meta>
            <identifier>
               <value value="2a620155-9d11-439e-92b3-5d9815ff4de8"/>
            </identifier>
            <status value="finished"/>
            <patient>
               <reference value="Patient/2"/>
            </patient>
         </Encounter>
      </resource>
   </entry>
   <entry>
      <resource>
         <MedicationStatement xmlns="http://hl7.org/fhir">
            <id value="91"/>
            <meta>
               <profile value="http://hl7.org/fhir/StructureDefinition/daf-medicationstatement"/>
            </meta>
            <text>
               <status value="generated"/>
               <div xmlns="http://www.w3.org/1999/xhtml">
                  <table class="hapiPropertyTable">
                     <tbody>
                        <tr>
                           <td>Period</td>
                           <td>Wed Mar 18 00:00:00 CST 2012 - ?</td>
                        </tr>
                     </tbody>
                  </table>
                  <div>
                     <table class="hapiPropertyTable">
                        <tbody>
                           <tr>
                              <th>Dosage</th>
                           </tr>
                           <tr>
                              <td>Timing</td>
                              <td>
                                 <div>12/h</div>
                              </td>
                           </tr>
                           <tr>
                              <td>Route</td>
                              <td>
                                 <div>ORAL</div>
                              </td>
                           </tr>
                           <tr>
                              <td>Quantity</td>
                              <td>
                                 <div>2</div>
                              </td>
                           </tr>
                        </tbody>
                     </table>
                  </div>
               </div>
            </text>
            <identifier>
               <value value="6c844c75-aa34-411c-b7bd-5e4a9f206e29"/>
            </identifier>
            <patient>
               <reference value="Patient/2"/>
            </patient>
            <informationSource>
               <reference value="Practitioner/92"/>
            </informationSource>
            <status value="active"/>
            <wasNotTaken value="false"/>
            <reasonForUseReference>
               <reference value="Condition/94"/>
            </reasonForUseReference>
            <effectivePeriod>
               <start value="2012-03-18"/>
            </effectivePeriod>
            <medicationReference>
               <reference value="Medication/93"/>
            </medicationReference>
            <dosage>
               <timing>
                  <repeat>
                     <period value="12"/>
                     <periodUnits value="h"/>
                  </repeat>
               </timing>
               <route>
                  <coding>
                     <system value="urn:oid:2.16.840.1.113883.3.26.1.1"/>
                     <code value="C38288"/>
                     <display value="ORAL"/>
                  </coding>
               </route>
               <quantityQuantity>
                  <value value="1"/>
                  <unit value="1"/>
               </quantityQuantity>
            </dosage>
         </MedicationStatement>
      </resource>
   </entry>
   <entry>
      <resource>
         <Practitioner xmlns="http://hl7.org/fhir">
            <id value="92"/>
            <meta>
               <profile value="http://hl7.org/fhir/StructureDefinition/daf-pract"/>
            </meta>
            <text>
               <status value="generated"/>
               <div xmlns="http://www.w3.org/1999/xhtml">
                  <table class="hapiPropertyTable">
                     <tbody>
                        <tr>
                           <td>Identifier</td>
                           <td>5555555555</td>
                        </tr>
                        <tr>
                           <td>Name</td>
                           <td>Patricia Patty 
                              <b>PRIMARY </b>M.D.
                           </td>
                        </tr>
                     </tbody>
                  </table>
               </div>
            </text>
            <identifier>
               <system value="urn:oid:2.16.840.1.113883.4.6"/>
               <value value="5555555555"/>
            </identifier>
            <name>
               <family value="Primary"/>
               <given value="Patricia"/>
               <given value="Patty"/>
               <suffix value="M.D."/>
            </name>
            <telecom>
               <system value="phone"/>
               <value value="+1(555)555-1004"/>
               <use value="work"/>
            </telecom>
            <address>
               <line value="1004 Healthcare Drive "/>
               <city value="Portland"/>
               <state value="OR"/>
               <postalCode value="99123"/>
               <country value="US"/>
            </address>
            <practitionerRole>
               <role>
                  <coding>
                     <system value="urn:oid:2.16.840.1.113883.6.101"/>
                     <code value="207QA0505X"/>
                     <display value="Adult Medicine"/>
                  </coding>
               </role>
            </practitionerRole>
         </Practitioner>
      </resource>
   </entry>
   <entry>
      <resource>
         <Medication xmlns="http://hl7.org/fhir">
            <id value="93"/>
            <meta>
               <profile value="http://hl7.org/fhir/StructureDefinition/daf-medication"/>
            </meta>
            <text>
               <status value="generated"/>
               <div xmlns="http://www.w3.org/1999/xhtml">
                  <div class="hapiHeaderText">
                     <div>Atenolol 25 MG Oral Tablet</div>
                  </div>
               </div>
            </text>
            <code>
               <coding>
                  <system value="http://www.nlm.nih.gov/research/umls/rxnorm"/>
                  <code value="197380"/>
                  <display value="Atenolol 25 MG Oral Tablet"/>
               </coding>
            </code>
         </Medication>
      </resource>
   </entry>
   <entry>
      <resource>
         <Condition xmlns="http://hl7.org/fhir">
            <id value="94"/>
            <meta>
               <profile value="http://hl7.org/fhir/StructureDefinition/daf-condition"/>
            </meta>
            <text>
               <status value="generated"/>
               <div xmlns="http://www.w3.org/1999/xhtml">
                  <table class="hapiPropertyTable">
                     <tbody>
                        <tr>
                           <td>Code</td>
                           <td>
                              <div>Hypertension</div>
                           </td>
                        </tr>
                        <tr>
                           <td>Category</td>
                           <td/>
                        </tr>
                     </tbody>
                  </table>
               </div>
            </text>
            <identifier>
               <value value="e63166c7-6482-4a44-83a1-37ccdbde725b"/>
            </identifier>
            <patient>
               <reference value="Patient/2"/>
            </patient>
            <code>
               <coding>
                  <system value="http://snomed.info/sct"/>
                  <code value="38341003"/>
                  <display value="Hypertension"/>
               </coding>
            </code>
            <category>
               <coding>
                  <system value="http://hl7.org/fhir/condition-category"/>
                  <code value="finding"/>
               </coding>
            </category>
            <verificationStatus value="confirmed"/>
         </Condition>
      </resource>
   </entry>
   <entry>
      <resource>
         <MedicationStatement xmlns="http://hl7.org/fhir">
            <id value="95"/>
            <meta>
               <profile value="http://hl7.org/fhir/StructureDefinition/daf-medicationstatement"/>
            </meta>
            <text>
               <status value="generated"/>
               <div xmlns="http://www.w3.org/1999/xhtml">
                  <table class="hapiPropertyTable">
                     <tbody>
                        <tr>
                           <td>Period</td>
                           <td>Sun Jan 03 00:00:00 CST 2011 - ?</td>
                        </tr>
                     </tbody>
                  </table>
                  <div>
                     <table class="hapiPropertyTable">
                        <tbody>
                           <tr>
                              <th>Dosage</th>
                           </tr>
                           <tr>
                              <td>Timing</td>
                              <td>
                                 <div>6/h</div>
                              </td>
                           </tr>
                           <tr>
                              <td>Route</td>
                              <td>
                                 <div>RESPIRATORY (INHALATION)</div>
                              </td>
                           </tr>
                           <tr>
                              <td>Quantity</td>
                              <td>
                                 <div>3</div>
                              </td>
                           </tr>
                        </tbody>
                     </table>
                  </div>
               </div>
            </text>
            <identifier>
               <value value="cdbd33f0-6cde-11db-9fe1-0800200c9a66"/>
            </identifier>
            <patient>
               <reference value="Patient/2"/>
            </patient>
            <status value="active"/>
            <wasNotTaken value="false"/>
            <reasonForUseReference>
               <reference value="Condition/99"/>
            </reasonForUseReference>
            <effectivePeriod>
               <start value="2011-01-03"/>
            </effectivePeriod>
            <medicationReference>
               <reference value="Medication/96"/>
            </medicationReference>
            <dosage>
               <timing>
                  <repeat>
                     <period value="6"/>
                     <periodUnits value="h"/>
                  </repeat>
               </timing>
               <route>
                  <coding>
                     <system value="urn:oid:2.16.840.1.113883.3.26.1.1"/>
                     <code value="C38216"/>
                     <display value="RESPIRATORY (INHALATION)"/>
                  </coding>
               </route>
               <quantityQuantity>
                  <value value="2"/>
                  <unit value="1"/>
               </quantityQuantity>
            </dosage>
         </MedicationStatement>
      </resource>
   </entry>
   <entry>
      <resource>
         <Medication xmlns="http://hl7.org/fhir">
            <id value="96"/>
            <meta>
               <profile value="http://hl7.org/fhir/StructureDefinition/daf-medication"/>
            </meta>
            <text>
               <status value="generated"/>
               <div xmlns="http://www.w3.org/1999/xhtml">
                  <div class="hapiHeaderText">
                     <div>Proventil 0.09 MG/ACTUAT inhalant solution</div>
                  </div>
               </div>
            </text>
            <code>
               <coding>
                  <system value="http://www.nlm.nih.gov/research/umls/rxnorm"/>
                  <code value="573621"/>
                  <display value="Proventil 0.09 MG/ACTUAT inhalant solution"/>
               </coding>
            </code>
            <manufacturer>
               <reference value="Organization/98"/>
            </manufacturer>
            <product>
               <ingredient>
                  <item>
                     <reference value="Substance/97"/>
                  </item>
               </ingredient>
            </product>
         </Medication>
      </resource>
   </entry>
   <entry>
      <resource>
         <Substance xmlns="http://hl7.org/fhir">
            <id value="97"/>
            <meta>
               <profile value="http://hl7.org/fhir/StructureDefinition/daf-substance"/>
            </meta>
            <text>
               <status value="generated"/>
               <div xmlns="http://www.w3.org/1999/xhtml">
                  <table class="hapiPropertyTable">
                     <tbody>
                        <tr>
                           <td>Substance</td>
                           <td>
                              <div>Proventil HFA</div>
                           </td>
                        </tr>
                     </tbody>
                  </table>
               </div>
            </text>
            <code>
               <coding>
                  <system value="http://www.nlm.nih.gov/research/umls/rxnorm"/>
                  <code value="219483"/>
                  <display value="Proventil HFA"/>
               </coding>
            </code>
         </Substance>
      </resource>
   </entry>
   <entry>
      <resource>
         <Organization xmlns="http://hl7.org/fhir">
            <id value="98"/>
            <meta>
               <profile value="http://hl7.org/fhir/StructureDefinition/daf-organization"/>
            </meta>
            <text>
               <status value="generated"/>
               <div xmlns="http://www.w3.org/1999/xhtml">
                  <table class="hapiPropertyTable">
                     <tbody>
                        <tr>
                           <td>Name</td>
                           <td>Medication Factory Inc.</td>
                        </tr>
                     </tbody>
                  </table>
               </div>
            </text>
            <name value="Medication Factory Inc."/>
         </Organization>
      </resource>
   </entry>
   <entry>
      <resource>
         <Condition xmlns="http://hl7.org/fhir">
            <id value="99"/>
            <meta>
               <profile value="http://hl7.org/fhir/StructureDefinition/daf-condition"/>
            </meta>
            <text>
               <status value="generated"/>
               <div xmlns="http://www.w3.org/1999/xhtml">
                  <table class="hapiPropertyTable">
                     <tbody>
                        <tr>
                           <td>Code</td>
                           <td>
                              <div>Asthma</div>
                           </td>
                        </tr>
                        <tr>
                           <td>Category</td>
                           <td/>
                        </tr>
                        <tr>
                           <td>Clinical Status</td>
                           <td>active</td>
                        </tr>
                        <tr>
                           <td>Onset</td>
                           <td>
                              <div>Sun Jan 03 00:00:00 CST 2011</div>
                           </td>
                        </tr>
                     </tbody>
                  </table>
               </div>
            </text>
            <identifier>
               <system value="urn:uuid:db734647-fc99-424c-a864-7e3cda82e703"/>
               <value value="45665"/>
            </identifier>
            <patient>
               <reference value="Patient/2"/>
            </patient>
            <code>
               <coding>
                  <system value="http://snomed.info/sct"/>
                  <code value="195967001"/>
                  <display value="Asthma"/>
               </coding>
            </code>
            <category>
               <coding>
                  <system value="http://hl7.org/fhir/condition-category"/>
                  <code value="finding"/>
               </coding>
            </category>
            <clinicalStatus value="active"/>
            <verificationStatus value="confirmed"/>
            <onsetDateTime value="2011-01-03"/>
         </Condition>
      </resource>
   </entry>
   <entry>
      <resource>
         <FamilyMemberHistory xmlns="http://hl7.org/fhir">
            <id value="100"/>
            <meta>
               <profile value="http://hl7.org/fhir/StructureDefinition/daf-familymemberhistory"/>
            </meta>
            <text>
               <status value="generated"/>
               <div xmlns="http://www.w3.org/1999/xhtml">
                  <table class="hapiPropertyTable">
                     <tbody>
                        <tr>
                           <td>Relationship</td>
                           <td>
                              <div>Father</div>
                           </td>
                        </tr>
                        <tr>
                           <td>Born</td>
                           <td>
                              <div>Sat Dec 31 00:00:00 CST 1910</div>
                           </td>
                        </tr>
                        <tr>
                           <td>Deceased</td>
                           <td>YES</td>
                        </tr>
                     </tbody>
                  </table>
                  <table class="hapiPropertyTable">
                     <tbody>
                        <tr>
                           <th>Condition</th>
                        </tr>
                        <tr>
                           <td>Code</td>
                           <td>
                              <div>Myocardial infarction</div>
                           </td>
                        </tr>
                        <tr>
                           <td>Onset</td>
                           <td>
                              <div>57a</div>
                           </td>
                        </tr>
                        <tr>
                           <td>Outcome</td>
                           <td>
                              <div>Dead</div>
                           </td>
                        </tr>
                     </tbody>
                  </table>
                  <table class="hapiPropertyTable">
                     <tbody>
                        <tr>
                           <th>Condition</th>
                        </tr>
                        <tr>
                           <td>Code</td>
                           <td>
                              <div>Diabetes mellitus type 2</div>
                           </td>
                        </tr>
                        <tr>
                           <td>Onset</td>
                           <td>
                              <div>40a</div>
                           </td>
                        </tr>
                     </tbody>
                  </table>
               </div>
            </text>
            <identifier>
               <value value="d42ebf70-5c89-11db-b0de-0855200c9a66"/>
            </identifier>
            <patient>
               <reference value="Patient/2"/>
            </patient>
            <status value="completed"/>
            <relationship>
               <coding>
                  <system value="urn:oid:2.16.840.1.113883.5.111"/>
                  <code value="FTH"/>
                  <display value="Father"/>
               </coding>
            </relationship>
            <gender value="male"/>
            <bornDate value="1910"/>
            <deceasedBoolean value="true"/>
            <condition>
               <code>
                  <coding>
                     <system value="http://snomed.info/sct"/>
                     <code value="22298006"/>
                     <display value="Myocardial infarction"/>
                  </coding>
               </code>
               <outcome>
                  <coding>
                     <system value="http://snomed.info/sct"/>
                     <code value="419099009"/>
                     <display value="Dead"/>
                  </coding>
               </outcome>
               <onsetQuantity>
                  <value value="57"/>
                  <unit value="a"/>
                  <system value="http://unitsofmeasure.org"/>
               </onsetQuantity>
            </condition>
            <condition>
               <code>
                  <coding>
                     <system value="http://snomed.info/sct"/>
                     <code value="44054006"/>
                     <display value="Diabetes mellitus type 2"/>
                  </coding>
               </code>
               <onsetQuantity>
                  <value value="40"/>
                  <unit value="a"/>
                  <system value="http://unitsofmeasure.org"/>
               </onsetQuantity>
            </condition>
         </FamilyMemberHistory>
      </resource>
   </entry>
   <entry>
      <resource>
         <Observation xmlns="http://hl7.org/fhir">
            <id value="101"/>
            <text>
               <status value="generated"/>
               <div xmlns="http://www.w3.org/1999/xhtml">
                  <table class="hapiPropertyTable">
                     <tbody>
                        <tr>
                           <td>Category</td>
                           <td>
                              <div>Functional status</div>
                           </td>
                        </tr>
                        <tr>
                           <td>Code</td>
                           <td>
                              <div> Independent walking</div>
                           </td>
                        </tr>
                        <tr>
                           <td>Date/Period</td>
                           <td>Tue Mar 11 00:00:00 CST 2013 - ?</td>
                        </tr>
                     </tbody>
                  </table>
               </div>
            </text>
            <identifier>
               <value value="b63a8636-cfff-4461-b018-40ba58ba8b32"/>
            </identifier>
            <status value="final"/>
            <category>
               <coding>
                  <system value="http://loinc.org"/>
                  <code value="54522-8"/>
                  <display value="Functional status"/>
               </coding>
            </category>
            <code>
               <coding>
                  <system value="http://snomed.info/sct"/>
                  <code value="165245003"/>
                  <display value=" Independent walking"/>
               </coding>
            </code>
            <subject>
               <reference value="Patient/2"/>
            </subject>
            <effectivePeriod>
               <start value="2013-03-11"/>
            </effectivePeriod>
            <performer>
               <reference value="Practitioner/102"/>
            </performer>
            <device>
               <reference value="Device/103"/>
            </device>
         </Observation>
      </resource>
   </entry>
   <entry>
      <resource>
         <Practitioner xmlns="http://hl7.org/fhir">
            <id value="102"/>
            <meta>
               <profile value="http://hl7.org/fhir/StructureDefinition/daf-pract"/>
            </meta>
            <text>
               <status value="generated"/>
               <div xmlns="http://www.w3.org/1999/xhtml">
                  <table class="hapiPropertyTable">
                     <tbody>
                        <tr>
                           <td>Identifier</td>
                           <td>555555555</td>
                        </tr>
                        <tr>
                           <td>Name</td>
                           <td/>
                        </tr>
                     </tbody>
                  </table>
               </div>
            </text>
            <identifier>
               <system value="urn:oid:2.16.840.1.113883.4.6"/>
               <value value="555555555"/>
            </identifier>
            <practitionerRole>
               <role>
                  <coding>
                     <system value="urn:oid:2.16.840.1.113883.6.101"/>
                     <code value="207QA0505X"/>
                     <display value="Adult Medicine"/>
                  </coding>
               </role>
            </practitionerRole>
         </Practitioner>
      </resource>
   </entry>
   <entry>
      <resource>
         <Device xmlns="http://hl7.org/fhir">
            <id value="103"/>
            <text>
               <status value="generated"/>
               <div xmlns="http://www.w3.org/1999/xhtml">
                  <table class="hapiPropertyTable">
                     <tbody>
                        <tr>
                           <td>Identifier</td>
                           <td>742aee30-21c5-11e1-bfc2-0800200c9a66</td>
                        </tr>
                        <tr>
                           <td>Type</td>
                           <td>
                              <div>cane, device (physical object)</div>
                           </td>
                        </tr>
                     </tbody>
                  </table>
               </div>
            </text>
            <identifier>
               <value value="742aee30-21c5-11e1-bfc2-0800200c9a66"/>
            </identifier>
            <type>
               <coding>
                  <system value="http://snomed.info/sct"/>
                  <code value="87405001"/>
                  <display value="cane, device (physical object)"/>
               </coding>
            </type>
            <patient>
               <reference value="Patient/2"/>
            </patient>
         </Device>
      </resource>
   </entry>
   <entry>
      <resource>
         <Observation xmlns="http://hl7.org/fhir">
            <id value="104"/>
            <text>
               <status value="generated"/>
               <div xmlns="http://www.w3.org/1999/xhtml">
                  <table class="hapiPropertyTable">
                     <tbody>
                        <tr>
                           <td>Category</td>
                           <td>
                              <div>Bathing</div>
                           </td>
                        </tr>
                        <tr>
                           <td>Code</td>
                           <td>
                              <div>Independent</div>
                           </td>
                        </tr>
                        <tr>
                           <td>Date/Period</td>
                           <td/>
                        </tr>
                     </tbody>
                  </table>
               </div>
            </text>
            <identifier>
               <value value="c6b5a04b-2bf4-49d1-8336-636a3813df0a"/>
            </identifier>
            <status value="final"/>
            <category>
               <coding>
                  <system value="http://loinc.org"/>
                  <code value="46008-9"/>
                  <display value="Bathing"/>
               </coding>
            </category>
            <code>
               <coding>
                  <system value="http://snomed.info/sct"/>
                  <code value="371153006"/>
                  <display value="Independent"/>
               </coding>
            </code>
            <subject>
               <reference value="Patient/2"/>
            </subject>
            <performer>
               <reference value="Practitioner/105"/>
            </performer>
         </Observation>
      </resource>
   </entry>
   <entry>
      <resource>
         <Practitioner xmlns="http://hl7.org/fhir">
            <id value="105"/>
            <meta>
               <profile value="http://hl7.org/fhir/StructureDefinition/daf-pract"/>
            </meta>
            <text>
               <status value="generated"/>
               <div xmlns="http://www.w3.org/1999/xhtml">
                  <table class="hapiPropertyTable">
                     <tbody>
                        <tr>
                           <td>Identifier</td>
                           <td>555555555</td>
                        </tr>
                        <tr>
                           <td>Name</td>
                           <td/>
                        </tr>
                     </tbody>
                  </table>
               </div>
            </text>
            <identifier>
               <system value="urn:oid:2.16.840.1.113883.4.6"/>
               <value value="555555555"/>
            </identifier>
            <practitionerRole>
               <role>
                  <coding>
                     <system value="urn:oid:2.16.840.1.113883.6.101"/>
                     <code value="207QA0505X"/>
                     <display value="Adult Medicine"/>
                  </coding>
               </role>
            </practitionerRole>
         </Practitioner>
      </resource>
   </entry>
</Bundle>